#Wave		#Intensity
1945.189453	14006.224609
1943.490234	14134.181641
1941.789063	14281.870117
1940.089844	14241.307617
1938.388672	13994.945313
1936.687500	13994.120117
1934.986328	14002.109375
1933.285156	14187.879883
1931.583984	14163.506836
1929.880859	14099.477539
1928.179688	13997.282227
1926.476563	14034.611328
1924.773438	14170.289063
1923.070313	14021.148438
1921.367188	14322.618164
1919.664063	14191.103516
1917.958984	14243.021484
1916.255859	14067.548828
1914.550781	14116.529297
1912.845703	14017.381836
1911.140625	14097.136719
1909.435547	14081.575195
1907.730469	13997.129883
1906.023438	13944.947266
1904.316406	14096.438477
1902.611328	14006.162109
1900.904297	14016.974609
1899.197266	13956.023438
1897.488281	13977.083008
1895.781250	13980.564453
1894.074219	13922.566406
1892.365234	14130.929688
1890.656250	14074.380859
1888.947266	13995.904297
1887.238281	13781.420898
1885.529297	13956.015625
1883.818359	13855.655273
1882.109375	13787.489258
1880.398438	13815.813477
1878.687500	14022.418945
1876.976563	13748.221680
1875.265625	13734.161133
1873.554688	13853.022461
1871.841797	13738.171875
1870.130859	13686.144531
1868.417969	13821.000977
1866.705078	13659.496094
1864.992188	13693.604492
1863.279297	13730.616211
1861.564453	13516.680664
1859.851563	13635.386719
1858.136719	13754.047852
1856.421875	13849.333984
1854.707031	13730.275391
1852.992188	13727.865234
1851.277344	13786.661133
1849.562500	13788.606445
1847.845703	13700.221680
1846.128906	13547.775391
1844.412109	13606.548828
1842.695313	13596.861328
1840.978516	13687.625977
1839.261719	13570.209961
1837.542969	13480.483398
1835.824219	13815.658203
1834.105469	13690.997070
1832.386719	13359.834961
1830.667969	13581.409180
1828.949219	13421.951172
1827.228516	13487.877930
1825.509766	13591.568359
1823.789063	13422.011719
1822.068359	13484.987305
1820.347656	13678.680664
1818.626953	13506.284180
1816.904297	13367.347656
1815.183594	13505.775391
1813.460938	13481.563477
1811.738281	13608.302734
1810.015625	13293.847656
1808.292969	13355.279297
1806.568359	13319.494141
1804.845703	13347.534180
1803.121094	13416.164063
1801.396484	13204.950195
1799.671875	13247.482422
1797.947266	13197.241211
1796.222656	13319.450195
1794.496094	13322.812500
1792.769531	13311.685547
1791.044922	13294.766602
1789.318359	13153.325195
1787.589844	12897.565430
1785.863281	12967.568359
1784.136719	13183.707031
1782.408203	13120.511719
1780.679688	13210.678711
1778.951172	13185.101563
1777.222656	12977.321289
1775.494141	13051.551758
1773.763672	13140.208984
1772.035156	13410.937500
1770.304688	12947.486328
1768.574219	13036.104492
1766.843750	13006.237305
1765.111328	12940.273438
1763.380859	12884.438477
1761.648438	12827.178711
1759.917969	12961.911133
1758.185547	12985.468750
1756.453125	12880.597656
1754.718750	12956.089844
1752.986328	12771.929688
1751.251953	13017.572266
1749.517578	12806.069336
1747.785156	12826.729492
1746.048828	12680.193359
1744.314453	12755.621094
1742.580078	12885.764648
1740.843750	12717.685547
1739.107422	12955.794922
1737.371094	12699.925781
1735.634766	12661.534180
1733.898438	12568.459961
1732.160156	12709.988281
1730.423828	12723.406250
1728.685547	12767.025391
1726.947266	12878.224609
1725.208984	12657.202148
1723.470703	12585.783203
1721.730469	12787.503906
1719.992188	12678.716797
1718.251953	12529.734375
1716.511719	12510.103516
1714.771484	12454.567383
1713.029297	12623.078125
1711.289063	12498.619141
1709.546875	12664.180664
1707.804688	12544.061523
1706.062500	12489.995117
1704.320313	12445.989258
1702.578125	12571.259766
1700.833984	12439.768555
1699.091797	12491.859375
1697.347656	12490.884766
1695.603516	12499.941406
1693.857422	12421.577148
1692.113281	12559.586914
1690.369141	12438.261719
1688.623047	12425.829102
1686.876953	12643.938477
1685.130859	12611.421875
1683.384766	12471.562500
1681.636719	12404.741211
1679.890625	12595.490234
1678.142578	12355.571289
1676.394531	12225.872070
1674.646484	12326.448242
1672.896484	12395.530273
1671.148438	12480.305664
1669.398438	12469.292969
1667.650391	12268.243164
1665.900391	12214.414063
1664.148438	12234.875977
1662.398438	12305.308594
1660.648438	12161.548828
1658.896484	12177.718750
1657.144531	12269.521484
1655.392578	12238.572266
1653.640625	12013.611328
1651.886719	12219.492188
1650.134766	12433.846680
1648.380859	12334.442383
1646.626953	11998.442383
1644.873047	12112.941406
1643.119141	12451.107422
1641.363281	12186.508789
1639.609375	12283.803711
1637.853516	12093.390625
1636.097656	12206.323242
1634.341797	12323.478516
1632.583984	12215.712891
1630.828125	11958.576172
1629.070313	12050.096680
1627.312500	12168.603516
1625.554688	11969.929688
1623.796875	12111.150391
1622.037109	12091.677734
1620.279297	11951.403320
1618.519531	12099.641602
1616.759766	12030.452148
1615.000000	12042.251953
1613.238281	12058.304688
1611.478516	11955.082031
1609.716797	12175.558594
1607.955078	12181.633789
1606.193359	12011.750000
1604.431641	12044.806641
1602.669922	12070.755859
1600.906250	12054.148438
1599.142578	11863.150391
1597.378906	11989.760742
1595.615234	11815.855469
1593.851563	12060.031250
1592.085938	12091.600586
1590.322266	11922.023438
1588.556641	11945.106445
1586.791016	12157.902344
1585.025391	11943.109375
1583.257813	11809.072266
1581.492188	11935.446289
1579.724609	11928.784180
1577.957031	11818.870117
1576.189453	11987.583008
1574.419922	11983.736328
1572.652344	12030.777344
1570.882813	11783.836914
1569.113281	11720.682617
1567.343750	11684.392578
1565.574219	11874.101563
1563.802734	11695.167969
1562.033203	11841.026367
1560.261719	11824.495117
1558.490234	11731.761719
1556.718750	11744.886719
1554.947266	11911.768555
1553.173828	11954.465820
1551.400391	11562.832031
1549.626953	11659.151367
1547.853516	11738.515625
1546.080078	11589.549805
1544.304688	11804.151367
1542.531250	11580.569336
1540.755859	11635.935547
1538.980469	11450.495117
1537.205078	11522.753906
1535.427734	11450.009766
1533.652344	11667.177734
1531.875000	11391.833008
1530.097656	11374.013672
1528.320313	11508.083984
1526.541016	11602.727539
1524.763672	11687.490234
1522.984375	11623.236328
1521.205078	11559.007813
1519.425781	11395.055664
1517.646484	11417.982422
1515.865234	11532.176758
1514.085938	11437.124023
1512.304688	11277.537109
1510.523438	11453.436523
1508.740234	11355.647461
1506.958984	11328.040039
1505.175781	11329.895508
1503.394531	11292.485352
1501.611328	11256.491211
1499.826172	11261.159180
1498.042969	11390.546875
1496.259766	11304.110352
1494.474609	11216.306641
1492.689453	11330.212891
1490.904297	11313.847656
1489.117188	11241.491211
1487.332031	11275.536133
1485.544922	11261.987305
1483.757813	11100.141602
1481.970703	11169.158203
1480.183594	11136.056641
1478.394531	11172.875977
1476.607422	11159.353516
1474.818359	10978.124023
1473.029297	11100.184570
1471.240234	11395.420898
1469.449219	11116.480469
1467.658203	11156.040039
1465.869141	11058.761719
1464.078125	11177.876953
1462.285156	11019.226563
1460.494141	11166.202148
1458.701172	11168.038086
1456.910156	11016.458008
1455.117188	10869.124023
1453.324219	10929.568359
1451.529297	11108.457031
1449.736328	10884.549805
1447.941406	11060.583008
1446.146484	10868.814453
1444.351563	11039.202148
1442.554688	10993.708984
1440.759766	10912.041016
1438.962891	10854.064453
1437.166016	10821.157227
1435.369141	10766.003906
1433.572266	10843.002930
1431.773438	10808.723633
1429.976563	10894.018555
1428.177734	10880.589844
1426.378906	10739.315430
1424.578125	10657.842773
1422.779297	10726.423828
1420.978516	10821.359375
1419.177734	10934.304688
1417.376953	10732.082031
1415.576172	10894.958984
1413.775391	10832.974609
1411.972656	10740.494141
1410.169922	10584.249023
1408.367188	10627.755859
1406.564453	10560.330078
1404.759766	10720.254883
1402.957031	10738.755859
1401.152344	10487.069336
1399.347656	10767.417969
1397.542969	10767.888672
1395.736328	10541.276367
1393.931641	10568.094727
1392.125000	10381.756836
1390.318359	10542.818359
1388.511719	10734.247070
1386.703125	10426.270508
1384.894531	10627.318359
1383.087891	10499.228516
1381.279297	10438.922852
1379.468750	10648.126953
1377.660156	10643.079102
1375.849609	10586.921875
1374.041016	10616.414063
1372.230469	10598.945313
1370.417969	10490.370117
1368.607422	10530.901367
1366.794922	10411.345703
1364.984375	10429.800781
1363.171875	10315.833008
1361.357422	10466.682617
1359.544922	10413.416016
1357.730469	10351.901367
1355.917969	10447.517578
1354.103516	10435.620117
1352.287109	10529.796875
1350.472656	10307.168945
1348.656250	10156.235352
1346.841797	10125.133789
1345.025391	10363.805664
1343.207031	10334.045898
1341.390625	10448.750000
1339.572266	10183.781250
1337.755859	10137.574219
1335.937500	10791.183594
1334.117188	10461.705078
1332.298828	10381.107422
1330.478516	10344.509766
1328.658203	10148.583008
1326.837891	10062.608398
1325.017578	10068.665039
1323.197266	10264.159180
1321.375000	10067.041992
1319.552734	10059.368164
1317.730469	9994.078125
1315.908203	10000.136719
1314.085938	10169.373047
1312.261719	9854.580078
1310.437500	9947.014648
1308.613281	10006.518555
1306.789063	10115.317383
1304.962891	9984.356445
1303.138672	9901.382813
1301.312500	9997.808594
1299.486328	10070.918945
1297.660156	9977.028320
1295.832031	9829.814453
1294.003906	9896.070313
1292.177734	9832.365234
1290.347656	9671.601563
1288.519531	9830.808594
1286.691406	9894.267578
1284.861328	9912.604492
1283.031250	9872.184570
1281.201172	9742.998047
1279.371094	9858.309570
1277.539063	9722.353516
1275.707031	9833.521484
1273.875000	9921.440430
1272.042969	9650.479492
1270.210938	9750.674805
1268.376953	9786.725586
1266.544922	9882.753906
1264.710938	9597.039063
1262.876953	9607.201172
1261.041016	9731.817383
1259.207031	9883.624023
1257.371094	9757.511719
1255.535156	9664.133789
1253.699219	9578.964844
1251.861328	9639.472656
1250.025391	9625.107422
1248.187500	9678.773438
1246.349609	9705.209961
1244.511719	9444.689453
1242.671875	9532.347656
1240.833984	9629.480469
1238.994141	9727.928711
1237.154297	9587.197266
1235.312500	9667.949219
1233.472656	9512.350586
1231.630859	9525.190430
1229.789063	9501.370117
1227.947266	9556.279297
1226.105469	9460.542969
1224.261719	9444.888672
1222.419922	9590.645508
1220.576172	9459.704102
1218.732422	9464.394531
1216.886719	9532.786133
1215.042969	9544.231445
1213.197266	9468.960938
1211.351563	9420.813477
1209.505859	9489.150391
1207.658203	9446.433594
1205.812500	9451.111328
1203.964844	9277.145508
1202.117188	9498.343750
1200.269531	9496.240234
1198.419922	9481.964844
1196.572266	9405.496094
1194.722656	9238.487305
1192.873047	9351.320313
1191.021484	9381.676758
1189.171875	9324.207031
1187.320313	9300.528320
1185.468750	9329.522461
1183.617188	9311.250977
1181.765625	9299.735352
1179.912109	9235.595703
1178.060547	9271.319336
1176.207031	9289.492188
1174.353516	9159.315430
1172.498047	9197.726563
1170.644531	9290.037109
1168.789063	9212.501953
1166.933594	9091.885742
1165.078125	9118.150391
1163.220703	9221.166992
1161.363281	9212.380859
1159.507813	9295.136719
1157.648438	9193.472656
1155.791016	9043.414063
1153.933594	9131.529297
1152.074219	9077.041016
1150.214844	9031.987305
1148.355469	9199.360352
1146.496094	9220.156250
1144.634766	9160.317383
1142.773438	9198.576172
1140.912109	9146.825195
1139.050781	8979.612305
1137.189453	8893.025391
1135.326172	9078.953125
1133.462891	9005.800781
1131.599609	9095.018555
1129.736328	9039.331055
1127.871094	9021.215820
1126.007813	8993.723633
1124.142578	8859.006836
1122.277344	9027.221680
1120.410156	8963.567383
1118.544922	8946.825195
1116.677734	8912.678711
1114.810547	8980.306641
1112.943359	8853.799805
1111.074219	9052.567383
1109.207031	9189.693359
1107.337891	9158.202148
1105.468750	9149.459961
1103.599609	9015.029297
1101.728516	8966.216797
1099.859375	9008.309570
1097.988281	9062.409180
1096.115234	9004.263672
1094.244141	8932.787109
1092.373047	8926.773438
1090.500000	8855.344727
1088.626953	8842.675781
1086.753906	8979.469727
1084.878906	9052.161133
1083.005859	8959.423828
1081.130859	8892.063477
1079.255859	8904.727539
1077.378906	8854.736328
1075.503906	8819.426758
1073.626953	8836.092773
1071.750000	8896.708008
1069.873047	8813.466797
1067.996094	8816.805664
1066.117188	8971.892578
1064.238281	8856.748047
1062.359375	8963.854492
1060.480469	8911.282227
1058.601563	8806.866211
1056.720703	8923.215820
1054.839844	8825.488281
1052.958984	8779.637695
1051.078125	8638.136719
1049.195313	8788.955078
1047.312500	8781.656250
1045.429688	8721.247070
1043.546875	8670.156250
1041.664063	8750.483398
1039.779297	8692.773438
1037.894531	8766.424805
1036.009766	8806.883789
1034.125000	8777.042969
1032.240234	8789.639648
1030.353516	8773.069336
1028.466797	8533.882813
1026.580078	8570.369141
1024.691406	8645.250000
1022.804688	8686.990234
1020.916016	8692.964844
1019.027344	8630.106445
1017.138672	8606.975586
1015.248047	9404.135742
1013.357422	8857.035156
1011.468750	8775.678711
1009.576172	8629.574219
1007.685547	8523.189453
1005.792969	8685.124023
1003.902344	8705.611328
1002.009766	8685.140625
1000.115234	8648.830078
998.222656	8572.924805
996.328125	8638.297852
994.433594	8631.053711
992.539063	8516.938477
990.644531	8512.362305
988.748047	8681.873047
986.853516	8581.006836
984.957031	8606.736328
983.058594	8616.637695
981.162109	8618.627930
979.263672	8847.197266
977.365234	8486.948242
975.466797	8498.180664
973.568359	8448.851563
971.667969	8456.137695
969.769531	8754.218750
967.869141	8645.663086
965.968750	8512.166992
964.066406	8452.367188
962.164063	8581.900391
960.263672	8437.993164
958.359375	8712.011719
956.457031	8595.727539
954.554688	8631.852539
952.650391	8664.020508
950.746094	8475.618164
948.841797	8553.744141
946.935547	8567.535156
945.029297	8517.033203
943.125000	8614.768555
941.216797	8645.580078
939.310547	8558.383789
937.404297	8755.654297
935.496094	8465.355469
933.587891	8425.422852
931.679688	8530.897461
929.769531	8459.537109
927.859375	8478.545898
925.951172	8424.245117
924.039063	8465.497070
922.128906	8428.230469
920.216797	8604.188477
918.306641	8335.437500
916.394531	8227.623047
914.480469	8298.932617
912.568359	8316.628906
910.654297	8329.089844
908.740234	8490.454102
906.826172	8523.762695
904.912109	8374.268555
902.996094	8455.883789
901.080078	8365.197266
899.164063	8545.934570
897.248047	8341.782227
895.332031	8452.017578
893.414063	8554.376953
891.496094	8338.629883
889.578125	8473.547852
887.658203	8412.964844
885.740234	8236.474609
883.820313	8389.552734
881.900391	8344.652344
879.978516	8304.978516
878.058594	8236.690430
876.136719	8173.638184
874.214844	8382.485352
872.292969	8435.171875
870.369141	8556.746094
868.447266	8245.389648
866.523438	8338.357422
864.599609	8341.627930
862.673828	8176.024414
860.750000	8259.850586
858.824219	8330.652344
856.898438	8261.223633
854.972656	8391.690430
853.044922	8339.146484
851.117188	8332.027344
849.189453	8385.866211
847.261719	8447.458984
845.333984	8448.095703
843.404297	8285.433594
841.474609	8204.474609
839.544922	8316.570313
837.615234	8404.005859
835.683594	8285.523438
833.753906	8211.109375
831.822266	8301.093750
829.888672	8288.817383
827.957031	8323.114258
826.023438	8231.943359
824.089844	8339.938477
822.156250	8420.735352
820.222656	8149.957031
818.287109	8259.185547
816.351563	8328.315430
814.416016	8335.419922
812.480469	8209.525391
810.542969	8277.325195
808.605469	8381.229492
806.667969	8294.118164
804.730469	8325.727539
802.792969	8376.667969
800.853516	8337.324219
798.914063	8362.453125
796.974609	8354.060547
795.033203	8332.786133
793.093750	8379.794922
791.152344	8649.589844
789.210938	8538.125000
787.269531	8534.845703
785.326172	8695.017578
783.382813	8731.588867
781.439453	8696.103516
779.496094	8664.492188
777.550781	8472.168945
775.607422	8515.181641
773.662109	8513.191406
771.716797	8453.379883
769.769531	8470.671875
767.824219	8191.281250
765.876953	8212.476563
763.929688	8232.377930
761.980469	8279.219727
760.033203	8349.134766
758.083984	8329.219727
756.134766	8470.908203
754.183594	8293.261719
752.234375	8265.678711
750.283203	8504.681641
748.332031	8475.779297
746.380859	8403.335938
744.429688	8119.610352
742.476563	8331.530273
740.523438	8083.795898
738.570313	8261.068359
736.615234	8311.586914
734.662109	8403.014648
732.707031	8287.217773
730.751953	8327.461914
728.794922	8324.225586
726.839844	8413.003906
724.882813	8320.307617
722.925781	8467.803711
720.968750	8509.230469
719.009766	8442.110352
717.050781	8418.420898
715.091797	8390.913086
713.132813	8441.246094
711.173828	8417.570313
709.212891	8276.579102
707.251953	8310.326172
705.291016	8323.660156
703.330078	8182.788086
701.367188	8173.210938
699.404297	8153.447266
697.441406	8346.362305
695.478516	8408.047852
693.513672	8323.323242
691.548828	8183.916992
689.583984	8226.509766
687.619141	8185.132324
685.652344	8381.575195
683.685547	8408.832031
681.718750	8202.198242
679.751953	8289.208008
677.785156	8179.253906
675.816406	8049.027832
673.847656	8180.454590
671.878906	8038.861816
669.908203	8162.610840
667.937500	7984.288086
665.966797	7981.123535
663.996094	8009.667969
662.025391	8058.486816
660.052734	8067.981445
658.080078	7967.201660
656.107422	7900.682129
654.134766	7889.934570
652.160156	8085.638184
650.185547	7916.568848
648.210938	7980.512695
646.236328	7912.797852
644.259766	7969.118164
642.283203	7905.231445
640.306641	7995.672363
638.330078	7986.178223
636.353516	8012.083984
634.375000	8139.082520
632.396484	8080.279785
630.416016	7849.705566
628.437500	8044.846680
626.457031	8040.398438
624.476563	8034.689453
622.496094	7964.618164
620.513672	7857.990234
618.533203	7904.043457
616.550781	7844.139648
614.568359	7924.213867
612.583984	7961.391113
610.599609	7989.728027
608.615234	8053.327637
606.630859	7828.446289
604.646484	7991.536621
602.660156	8000.949707
600.673828	7999.028809
598.687500	7790.730957
596.701172	7870.635254
594.712891	7966.851563
592.724609	8003.917969
590.736328	7908.961426
588.746094	7889.461914
586.757813	8005.682129
584.767578	7817.825195
582.777344	8006.850586
580.785156	8035.057617
578.794922	8041.908203
576.802734	7873.045410
574.810547	8017.953613
572.818359	8105.085938
570.824219	7853.551758
568.830078	7959.486816
566.835938	7975.113770
564.841797	7881.699219
562.845703	7845.964355
560.849609	7976.847168
558.853516	7978.674316
556.857422	7793.945801
554.859375	8046.161133
552.861328	7944.097656
550.863281	7925.908203
548.865234	7906.475586
546.865234	8072.128418
544.867188	8022.661621
542.867188	8003.216309
540.865234	7897.555176
538.865234	7940.612305
536.863281	7967.410156
534.861328	8076.608398
532.857422	7949.804688
530.855469	7967.840332
528.851563	7881.051270
526.847656	7896.597656
524.843750	7842.292969
522.837891	7844.122559
520.832031	7813.539551
518.826172	7972.403320
516.820313	7980.426270
514.812500	7821.525391
512.806641	7981.512695
510.796875	7857.547852
508.789063	7833.222168
506.781250	8102.597168
504.771484	7909.017578
502.761719	7959.323730
500.750000	7905.147461
498.740234	8122.020020
496.728516	7973.365723
494.716797	7922.949219
492.705078	8043.996094
490.691406	7973.712891
488.677734	8016.457520
486.664063	8149.802734
484.650391	8059.683105
482.634766	8000.626465
480.619141	7973.850098
478.603516	8010.334961
476.587891	8053.000000
474.570313	7982.841797
472.552734	8164.287598
470.535156	8024.751465
468.517578	7829.543457
466.498047	7809.038086
464.478516	7847.967285
462.458984	7997.034668
460.439453	8049.507324
458.417969	7972.054199
456.396484	7962.663574
454.375000	7974.296387
452.353516	7800.490723
450.330078	7944.397461
448.306641	8025.215820
446.283203	8009.639648
444.257813	8092.869141
442.234375	8016.782227
440.208984	8003.684082
438.181641	8181.872070
436.156250	8392.047852
434.128906	8684.759766
432.101563	8709.730469
430.074219	9049.062500
428.044922	9160.205078
426.017578	9363.708008
423.988281	9499.351563
421.957031	9346.728516
419.927734	9192.948242
417.896484	9413.467773
415.865234	9476.346680
413.833984	9987.052734
411.800781	10773.040039
409.767578	11834.102539
407.734375	15637.569336
405.701172	20308.146484
403.666016	21130.082031
401.630859	19326.205078
399.595703	18640.923828
397.560547	17804.945313
395.523438	17415.009766
393.486328	17830.382813
391.449219	18454.134766
389.410156	17772.365234
387.373047	14982.774414
385.333984	12613.902344
383.294922	10909.360352
381.253906	9996.097656
379.212891	9589.280273
377.171875	9539.095703
375.130859	10358.356445
373.087891	11364.508789
371.046875	14534.041016
369.001953	18180.402344
366.958984	18233.306641
364.916016	15686.099609
362.871094	13121.835938
360.824219	11525.764648
358.779297	10722.395508
356.732422	10086.811523
354.685547	10129.449219
352.638672	9900.971680
350.591797	10223.201172
348.542969	10520.854492
346.494141	10475.476563
344.445313	10683.857422
342.394531	10339.658203
340.343750	10497.972656
338.292969	11162.077148
336.242188	12270.649414
334.189453	12751.208008
332.138672	12423.960938
330.083984	11382.073242
328.031250	10613.416016
325.976563	10192.022461
323.921875	9605.359375
321.867188	9394.885742
319.812500	9086.008789
317.755859	9043.560547
315.699219	9076.496094
313.642578	8953.862305
311.583984	8995.304688
309.525391	8932.267578
307.466797	8580.256836
305.408203	8429.946289
303.347656	8334.328125
301.287109	8333.398438
299.226563	8298.502930
297.166016	8595.914063
295.103516	8734.342773
293.041016	8875.122070
290.978516	8880.104492
288.914063	9002.597656
286.849609	9075.367188
284.785156	9167.470703
282.720703	9159.048828
280.654297	9017.502930
278.587891	8884.497070
276.521484	8732.205078
274.453125	8848.454102
272.386719	8788.128906
270.318359	8973.193359
268.248047	9074.784180
266.179688	9140.077148
264.109375	9520.553711
262.039063	9726.960938
259.968750	10285.734375
257.896484	10770.598633
255.824219	11398.780273
253.751953	12398.127930
251.677734	13973.346680
249.603516	16119.163086
247.529297	19645.033203
245.455078	25852.371094
243.378906	36294.195313
241.304688	52545.976563
239.226563	66310.289063
237.150391	64410.421875
235.072266	49933.179688
232.994141	34214.789063
230.916016	22907.705078
228.835938	16705.833984
226.757813	13404.188477
224.675781	11400.958008
222.595703	10643.459961
220.513672	9948.815430
218.431641	9494.694336
216.349609	9005.996094
214.267578	8950.812500
212.183594	8623.290039
210.099609	8395.500000
208.013672	8345.311523
205.929688	8043.379883
203.843750	7948.959473
201.757813	8142.169434
199.669922	7862.087891
197.582031	7849.223145
195.494141	7817.206543
193.406250	7865.402832
191.316406	7809.461426
189.226563	7866.004395
187.136719	7900.987305
185.046875	7806.812012
182.955078	7779.627441
180.863281	7606.655762
178.769531	7812.512695
176.677734	7890.452637
174.583984	7875.207520
172.490234	7746.557617
170.394531	7701.518066
168.298828	7929.734375
166.203125	8067.170410
164.107422	8410.835938
162.009766	8506.337891
159.912109	8723.357422
157.814453	9219.083008
155.716797	11250.043945
153.617188	14483.925781
151.517578	15099.131836
149.416016	14552.294922
147.316406	14131.883789
145.214844	13169.223633
143.113281	11153.351563
141.009766	9331.182617
138.906250	8356.327148
136.802734	8219.780273
134.699219	8032.220703
132.593750	8236.702148
130.488281	8264.150391
128.382813	8431.653320
126.275391	9352.638672
124.167969	12267.475586
122.060547	13975.658203
119.951172	12936.678711
117.843750	11214.262695
115.734375	9491.597656
113.623047	8692.824219
111.513672	8466.583984
109.402344	8185.993652
107.289063	8171.914551
105.177734	8408.742188
103.064453	8985.007813
100.951172	9194.271484
98.835938	8718.738281
96.722656	8355.771484
94.607422	8403.112305
92.490234	8536.677734
90.375000	8092.548828
88.257813	7834.063477
86.140625	7400.994141
84.021484	6897.346680
81.902344	6847.063965
79.783203	6676.488770
77.664063	6595.630371
75.542969	6425.214844
73.421875	6418.719238
71.300781	6295.575195
69.177734	6342.123535
67.054688	6440.459473
64.931641	6393.931152
62.806641	6439.230469
60.683594	6293.885742
58.556641	6430.936523
56.431641	6391.510254
54.304688	6348.577637
52.177734	6393.816406
50.050781	6401.428223
47.921875	6280.993652
45.792969	6253.398438
43.664063	6269.255371
41.533203	6440.028320
39.402344	6460.513184
37.271484	6403.564453
35.140625	6317.328613
33.007813	6330.791016
