#Wave		#Intensity
1945.189453	13431.150391
1943.490234	13785.607422
1941.789063	14112.757813
1940.089844	13864.911133
1938.388672	13837.649414
1936.687500	13798.634766
1934.986328	13984.473633
1933.285156	13883.728516
1931.583984	13985.746094
1929.880859	13908.527344
1928.179688	13636.005859
1926.476563	14021.396484
1924.773438	13820.875977
1923.070313	13758.399414
1921.367188	14164.113281
1919.664063	13667.246094
1917.958984	13934.920898
1916.255859	14058.747070
1914.550781	13761.599609
1912.845703	13854.611328
1911.140625	13830.294922
1909.435547	13886.608398
1907.730469	13765.553711
1906.023438	13955.206055
1904.316406	13646.629883
1902.611328	13726.361328
1900.904297	13965.710938
1899.197266	13787.613281
1897.488281	13631.536133
1895.781250	13844.418945
1894.074219	13871.336914
1892.365234	13892.389648
1890.656250	13854.903320
1888.947266	13697.465820
1887.238281	13709.750000
1885.529297	13784.910156
1883.818359	13715.286133
1882.109375	13758.250000
1880.398438	13646.257813
1878.687500	13828.048828
1876.976563	13654.706055
1875.265625	13715.168945
1873.554688	13593.022461
1871.841797	13627.179688
1870.130859	13640.879883
1868.417969	13622.453125
1866.705078	13538.344727
1864.992188	13569.555664
1863.279297	13435.867188
1861.564453	13322.647461
1859.851563	13377.207031
1858.136719	13538.207031
1856.421875	13637.905273
1854.707031	13460.568359
1852.992188	13344.510742
1851.277344	13521.420898
1849.562500	13683.694336
1847.845703	13410.308594
1846.128906	13400.660156
1844.412109	13310.912109
1842.695313	13371.169922
1840.978516	13429.946289
1839.261719	13477.053711
1837.542969	13310.212891
1835.824219	13664.333008
1834.105469	13356.396484
1832.386719	13355.471680
1830.667969	13264.378906
1828.949219	13369.607422
1827.228516	13418.097656
1825.509766	13443.312500
1823.789063	13305.752930
1822.068359	13390.543945
1820.347656	13437.531250
1818.626953	13320.372070
1816.904297	13332.495117
1815.183594	13424.467773
1813.460938	13365.430664
1811.738281	13275.932617
1810.015625	13128.417969
1808.292969	13069.457031
1806.568359	13244.062500
1804.845703	13192.347656
1803.121094	13223.302734
1801.396484	13086.065430
1799.671875	13164.857422
1797.947266	12913.180664
1796.222656	13154.260742
1794.496094	13285.144531
1792.769531	13120.483398
1791.044922	13048.567383
1789.318359	13091.062500
1787.589844	12849.791016
1785.863281	13009.543945
1784.136719	13053.461914
1782.408203	12997.524414
1780.679688	12977.770508
1778.951172	13101.211914
1777.222656	12942.614258
1775.494141	12771.060547
1773.763672	12958.067383
1772.035156	12960.003906
1770.304688	12836.218750
1768.574219	12955.197266
1766.843750	12814.120117
1765.111328	12726.528320
1763.380859	12604.310547
1761.648438	12645.273438
1759.917969	12687.661133
1758.185547	12773.325195
1756.453125	12698.794922
1754.718750	12707.960938
1752.986328	12783.467773
1751.251953	12835.871094
1749.517578	12722.445313
1747.785156	12891.598633
1746.048828	12468.328125
1744.314453	12631.696289
1742.580078	12728.726563
1740.843750	12465.607422
1739.107422	12640.396484
1737.371094	12558.815430
1735.634766	12429.753906
1733.898438	12577.095703
1732.160156	12491.247070
1730.423828	12555.065430
1728.685547	12607.347656
1726.947266	12616.459961
1725.208984	12486.081055
1723.470703	12424.758789
1721.730469	12464.079102
1719.992188	12470.327148
1718.251953	12456.453125
1716.511719	12380.807617
1714.771484	12576.657227
1713.029297	12600.101563
1711.289063	12429.701172
1709.546875	12349.800781
1707.804688	12463.687500
1706.062500	12362.282227
1704.320313	12273.826172
1702.578125	12648.718750
1700.833984	12370.928711
1699.091797	12404.393555
1697.347656	12227.104492
1695.603516	12366.643555
1693.857422	12215.219727
1692.113281	12538.095703
1690.369141	12098.762695
1688.623047	12223.887695
1686.876953	12167.105469
1685.130859	12206.264648
1683.384766	12152.366211
1681.636719	12164.317383
1679.890625	12379.437500
1678.142578	12254.002930
1676.394531	12032.787109
1674.646484	12184.880859
1672.896484	12231.114258
1671.148438	12092.931641
1669.398438	12204.901367
1667.650391	12038.196289
1665.900391	12050.126953
1664.148438	12162.032227
1662.398438	12126.804688
1660.648438	12101.583008
1658.896484	11916.492188
1657.144531	12123.948242
1655.392578	12117.285156
1653.640625	11985.079102
1651.886719	11991.277344
1650.134766	12025.993164
1648.380859	12032.176758
1646.626953	11999.867188
1644.873047	11960.442383
1643.119141	12089.173828
1641.363281	12002.728516
1639.609375	11940.529297
1637.853516	11829.933594
1636.097656	11777.755859
1634.341797	11941.973633
1632.583984	11888.366211
1630.828125	11762.208008
1629.070313	11876.529297
1627.312500	11849.986328
1625.554688	11701.150391
1623.796875	11774.176758
1622.037109	11851.436523
1620.279297	11846.230469
1618.519531	11941.913086
1616.759766	11619.871094
1615.000000	11739.704102
1613.238281	11831.083984
1611.478516	11753.464844
1609.716797	11945.589844
1607.955078	11768.625000
1606.193359	11662.677734
1604.431641	11851.862305
1602.669922	11869.339844
1600.906250	11849.936523
1599.142578	11762.482422
1597.378906	11762.951172
1595.615234	11648.617188
1593.851563	11659.022461
1592.085938	11784.174805
1590.322266	11713.808594
1588.556641	11697.282227
1586.791016	11634.037109
1585.025391	11777.488281
1583.257813	11493.465820
1581.492188	11573.208008
1579.724609	11750.531250
1577.957031	11589.734375
1576.189453	11692.029297
1574.419922	11715.106445
1572.652344	11732.516602
1570.882813	11691.974609
1569.113281	11500.256836
1567.343750	11562.901367
1565.574219	11508.288086
1563.802734	11481.937500
1562.033203	11461.243164
1560.261719	11473.021484
1558.490234	11340.844727
1556.718750	11376.625000
1554.947266	11591.543945
1553.173828	11600.457031
1551.400391	11255.429688
1549.626953	11350.402344
1547.853516	11345.258789
1546.080078	11163.960938
1544.304688	11405.418945
1542.531250	11294.612305
1540.755859	11403.554688
1538.980469	11357.561523
1537.205078	11169.399414
1535.427734	11297.999023
1533.652344	11353.370117
1531.875000	11248.327148
1530.097656	11338.847656
1528.320313	11342.135742
1526.541016	11141.542969
1524.763672	11365.571289
1522.984375	11162.242188
1521.205078	11234.411133
1519.425781	11166.059570
1517.646484	11224.147461
1515.865234	11254.124023
1514.085938	11192.825195
1512.304688	11036.096680
1510.523438	11099.770508
1508.740234	11045.552734
1506.958984	10987.146484
1505.175781	11126.524414
1503.394531	11016.238281
1501.611328	11020.958984
1499.826172	10996.240234
1498.042969	10985.543945
1496.259766	10974.850586
1494.474609	11037.001953
1492.689453	10896.050781
1490.904297	10899.379883
1489.117188	10769.712891
1487.332031	10931.223633
1485.544922	10783.408203
1483.757813	10767.165039
1481.970703	10893.601563
1480.183594	10917.894531
1478.394531	10693.298828
1476.607422	10739.987305
1474.818359	10690.219727
1473.029297	10785.791016
1471.240234	11135.576172
1469.449219	10841.327148
1467.658203	10908.873047
1465.869141	10815.833984
1464.078125	10870.791992
1462.285156	10825.246094
1460.494141	10859.246094
1458.701172	10858.357422
1456.910156	10704.053711
1455.117188	10548.418945
1453.324219	10652.146484
1451.529297	10730.741211
1449.736328	10702.002930
1447.941406	10662.128906
1446.146484	10495.516602
1444.351563	10647.879883
1442.554688	10665.123047
1440.759766	10558.467773
1438.962891	10497.783203
1437.166016	10538.696289
1435.369141	10586.547852
1433.572266	10759.551758
1431.773438	10697.479492
1429.976563	10610.407227
1428.177734	10576.189453
1426.378906	10475.279297
1424.578125	10459.163086
1422.779297	10490.281250
1420.978516	10510.273438
1419.177734	10428.896484
1417.376953	10583.545898
1415.576172	10613.216797
1413.775391	10415.307617
1411.972656	10507.426758
1410.169922	10331.814453
1408.367188	10404.496094
1406.564453	10370.390625
1404.759766	10599.662109
1402.957031	10404.771484
1401.152344	10378.998047
1399.347656	10451.584961
1397.542969	10389.800781
1395.736328	10382.042969
1393.931641	10472.575195
1392.125000	10257.192383
1390.318359	10261.916992
1388.511719	10407.750977
1386.703125	10301.786133
1384.894531	10403.294922
1383.087891	10242.070313
1381.279297	10087.825195
1379.468750	10349.620117
1377.660156	10264.499023
1375.849609	10403.197266
1374.041016	10258.711914
1372.230469	10266.174805
1370.417969	10275.013672
1368.607422	10399.783203
1366.794922	10154.684570
1364.984375	10137.325195
1363.171875	10048.247070
1361.357422	10208.807617
1359.544922	10094.933594
1357.730469	10227.843750
1355.917969	10027.191406
1354.103516	10053.963867
1352.287109	10102.763672
1350.472656	10026.213867
1348.656250	9999.265625
1346.841797	10032.899414
1345.025391	10187.634766
1343.207031	10045.078125
1341.390625	9968.617188
1339.572266	9890.812500
1337.755859	10001.434570
1335.937500	10538.211914
1334.117188	10122.191406
1332.298828	10190.085938
1330.478516	10163.148438
1328.658203	9904.072266
1326.837891	9954.113281
1325.017578	9814.648438
1323.197266	9883.903320
1321.375000	9777.451172
1319.552734	9801.400391
1317.730469	9786.925781
1315.908203	9817.717773
1314.085938	10018.533203
1312.261719	9688.692383
1310.437500	9794.869141
1308.613281	9829.739258
1306.789063	9809.789063
1304.962891	9680.264648
1303.138672	9565.859375
1301.312500	9634.973633
1299.486328	9704.056641
1297.660156	9695.098633
1295.832031	9721.719727
1294.003906	9674.455078
1292.177734	9735.258789
1290.347656	9631.947266
1288.519531	9549.185547
1286.691406	9608.606445
1284.861328	9691.230469
1283.031250	9541.563477
1281.201172	9558.600586
1279.371094	9683.511719
1277.539063	9666.375977
1275.707031	9619.215820
1273.875000	9640.310547
1272.042969	9484.021484
1270.210938	9582.888672
1268.376953	9569.878906
1266.544922	9476.426758
1264.710938	9493.434570
1262.876953	9541.781250
1261.041016	9538.326172
1259.207031	9771.914063
1257.371094	9451.056641
1255.535156	9412.215820
1253.699219	9378.835938
1251.861328	9384.942383
1250.025391	9475.416992
1248.187500	9567.209961
1246.349609	9460.369141
1244.511719	9335.895508
1242.671875	9385.507813
1240.833984	9375.286133
1238.994141	9518.638672
1237.154297	9310.015625
1235.312500	9496.787109
1233.472656	9386.044922
1231.630859	9303.864258
1229.789063	9265.159180
1227.947266	9345.908203
1226.105469	9285.498047
1224.261719	9368.917969
1222.419922	9421.103516
1220.576172	9329.525391
1218.732422	9248.832031
1216.886719	9357.935547
1215.042969	9361.288086
1213.197266	9219.670898
1211.351563	9132.296875
1209.505859	9230.491211
1207.658203	9346.242188
1205.812500	9322.515625
1203.964844	9194.591797
1202.117188	9265.621094
1200.269531	9321.737305
1198.419922	9310.205078
1196.572266	9214.844727
1194.722656	9138.451172
1192.873047	9225.626953
1191.021484	9145.208984
1189.171875	9105.354492
1187.320313	9131.698242
1185.468750	9024.344727
1183.617188	9174.896484
1181.765625	9151.263672
1179.912109	8954.911133
1178.060547	8985.300781
1176.207031	9031.862305
1174.353516	9143.132813
1172.498047	9162.671875
1170.644531	9064.930664
1168.789063	9054.828125
1166.933594	8962.541016
1165.078125	8875.682617
1163.220703	9021.848633
1161.363281	9041.382813
1159.507813	8883.215820
1157.648438	8795.102539
1155.791016	8900.786133
1153.933594	8999.695313
1152.074219	8821.500977
1150.214844	8878.698242
1148.355469	9129.454102
1146.496094	9001.077148
1144.634766	9113.286133
1142.773438	8915.108398
1140.912109	8871.480469
1139.050781	8994.383789
1137.189453	8813.815430
1135.326172	8954.124023
1133.462891	8956.148438
1131.599609	8956.829102
1129.736328	8977.628906
1127.871094	9009.146484
1126.007813	8751.048828
1124.142578	8690.110352
1122.277344	8871.764648
1120.410156	8780.008789
1118.544922	8850.377930
1116.677734	8731.880859
1114.810547	8984.324219
1112.943359	8895.297852
1111.074219	8934.792969
1109.207031	8942.155273
1107.337891	8924.096680
1105.468750	8875.284180
1103.599609	8839.863281
1101.728516	8861.942383
1099.859375	8892.030273
1097.988281	8812.531250
1096.115234	8847.958008
1094.244141	8857.991211
1092.373047	8898.731445
1090.500000	8888.720703
1088.626953	8617.104492
1086.753906	8797.985352
1084.878906	8898.735352
1083.005859	8880.726563
1081.130859	8760.042969
1079.255859	8587.416016
1077.378906	8658.793945
1075.503906	8592.876953
1073.626953	8766.810547
1071.750000	8810.125000
1069.873047	8621.695313
1067.996094	8740.913086
1066.117188	8801.505859
1064.238281	8766.250000
1062.359375	8856.080078
1060.480469	8741.011719
1058.601563	8708.450195
1056.720703	8787.592773
1054.839844	8661.979492
1052.958984	8620.152344
1051.078125	8541.138672
1049.195313	8585.704102
1047.312500	8611.654297
1045.429688	8577.839844
1043.546875	8601.124023
1041.664063	8621.742188
1039.779297	8631.734375
1037.894531	8486.503906
1036.009766	8501.826172
1034.125000	8595.375977
1032.240234	8608.013672
1030.353516	8511.958008
1028.466797	8461.000000
1026.580078	8488.229492
1024.691406	8527.366211
1022.804688	8607.536133
1020.916016	8612.204102
1019.027344	8634.077148
1017.138672	8469.348633
1015.248047	9226.849609
1013.357422	8687.724609
1011.468750	8630.210938
1009.576172	8431.253906
1007.685547	8520.545898
1005.792969	8588.651367
1003.902344	8475.716797
1002.009766	8438.125977
1000.115234	8442.811523
998.222656	8495.025391
996.328125	8576.255859
994.433594	8632.374023
992.539063	8501.105469
990.644531	8573.042969
988.748047	8664.728516
986.853516	8631.111328
984.957031	8535.551758
983.058594	8392.588867
981.162109	8490.817383
979.263672	8673.308594
977.365234	8536.995117
975.466797	8532.416016
973.568359	8344.853516
971.667969	8487.724609
969.769531	8583.160156
967.869141	8461.489258
965.968750	8438.514648
964.066406	8498.389648
962.164063	8351.840820
960.263672	8342.046875
958.359375	8493.882813
956.457031	8576.021484
954.554688	8595.076172
952.650391	8495.940430
950.746094	8536.008789
948.841797	8324.051758
946.935547	8453.371094
945.029297	8506.538086
943.125000	8515.084961
941.216797	8468.550781
939.310547	8401.060547
937.404297	8424.041016
935.496094	8416.869141
933.587891	8295.719727
931.679688	8427.420898
929.769531	8353.465820
927.859375	8330.603516
925.951172	8365.342773
924.039063	8273.128906
922.128906	8292.165039
920.216797	8397.520508
918.306641	8311.898438
916.394531	8311.297852
914.480469	8203.512695
912.568359	8268.276367
910.654297	8288.587891
908.740234	8512.660156
906.826172	8438.877930
904.912109	8231.955078
902.996094	8258.779297
901.080078	8212.509766
899.164063	8431.118164
897.248047	8387.437500
895.332031	8427.239258
893.414063	8437.033203
891.496094	8223.919922
889.578125	8318.464844
887.658203	8164.106445
885.740234	8248.198242
883.820313	8376.529297
881.900391	8269.134766
879.978516	8129.246094
878.058594	8174.222656
876.136719	8195.756836
874.214844	8173.052734
872.292969	8201.078125
870.369141	8400.719727
868.447266	8293.486328
866.523438	8149.912598
864.599609	8268.866211
862.673828	8169.529297
860.750000	8244.265625
858.824219	8290.401367
856.898438	8297.571289
854.972656	8280.078125
853.044922	8162.683594
851.117188	8229.547852
849.189453	8274.332031
847.261719	8320.390625
845.333984	8371.613281
843.404297	8290.617188
841.474609	8235.572266
839.544922	8312.684570
837.615234	8256.362305
835.683594	8104.249512
833.753906	8259.006836
831.822266	8326.978516
829.888672	8375.508789
827.957031	8271.370117
826.023438	8213.836914
824.089844	8129.177246
822.156250	8299.220703
820.222656	8239.133789
818.287109	8170.029297
816.351563	8236.596680
814.416016	8248.888672
812.480469	8268.920898
810.542969	8257.960938
808.605469	8308.955078
806.667969	8174.119629
804.730469	8167.056641
802.792969	8347.003906
800.853516	8183.884277
798.914063	8321.201172
796.974609	8319.262695
795.033203	8260.628906
793.093750	8189.140137
791.152344	8504.055664
789.210938	8369.449219
787.269531	8394.529297
785.326172	8476.225586
783.382813	8685.267578
781.439453	8561.030273
779.496094	8638.769531
777.550781	8530.030273
775.607422	8458.619141
773.662109	8457.927734
771.716797	8339.023438
769.769531	8419.288086
767.824219	8175.869629
765.876953	8168.820801
763.929688	8261.902344
761.980469	8208.632813
760.033203	8372.230469
758.083984	8394.642578
756.134766	8341.375000
754.183594	8330.445313
752.234375	8363.103516
750.283203	8450.854492
748.332031	8384.806641
746.380859	8327.756836
744.429688	8102.961426
742.476563	8207.332031
740.523438	8179.802734
738.570313	8328.897461
736.615234	8243.773438
734.662109	8350.567383
732.707031	8178.511719
730.751953	8211.110352
728.794922	8200.231445
726.839844	8374.664063
724.882813	8435.299805
722.925781	8458.862305
720.968750	8507.953125
719.009766	8425.511719
717.050781	8401.826172
715.091797	8336.037109
713.132813	8429.762695
711.173828	8500.483398
709.212891	8191.135254
707.251953	8215.977539
705.291016	8261.201172
703.330078	8245.232422
701.367188	8256.026367
699.404297	8220.957031
697.441406	8341.268555
695.478516	8373.672852
693.513672	8381.875977
691.548828	8323.899414
689.583984	8316.841797
687.619141	8222.019531
685.652344	8281.113281
683.685547	8425.359375
681.718750	8189.487305
679.751953	8188.817383
677.785156	8119.541992
675.816406	8049.027832
673.847656	8049.658691
671.878906	7949.992676
669.908203	8072.493652
667.937500	7942.412109
665.966797	8012.839844
663.996094	7965.275391
662.025391	7979.867676
660.052734	8022.342285
658.080078	7948.189941
656.107422	7977.978516
654.134766	7870.931641
652.160156	8050.174805
650.185547	7896.309082
648.210938	8033.682129
646.236328	7830.531250
644.259766	7953.934082
642.283203	7928.002441
640.306641	8043.732422
638.330078	8016.524902
636.353516	7923.594238
634.375000	8035.448242
632.396484	8014.576172
630.416016	7843.389648
628.437500	7966.545410
626.457031	7969.691406
624.476563	8017.016602
622.496094	7988.596680
620.513672	7878.177734
618.533203	7922.964355
616.550781	7829.006348
614.568359	8013.731445
612.583984	7977.777832
610.599609	8053.999023
608.615234	8002.931641
606.630859	7864.974609
604.646484	7893.311035
602.660156	7839.797852
600.673828	7892.039551
598.687500	7883.852051
596.701172	7805.214355
594.712891	7893.899414
592.724609	7923.438965
590.736328	7959.248535
588.746094	7817.819824
586.757813	7918.977539
584.767578	7792.699707
582.777344	7790.822754
580.785156	7861.774414
578.794922	7923.903320
576.802734	7834.138184
574.810547	7827.229492
572.818359	8056.162109
570.824219	7835.993164
568.830078	7975.787109
566.835938	7898.646973
564.841797	7854.127930
562.845703	7802.111328
560.849609	7996.889648
558.853516	7953.627441
556.857422	7821.490723
554.859375	8089.972168
552.861328	7907.806152
550.863281	7933.415039
548.865234	7808.911133
546.865234	7934.570801
544.867188	7940.147461
542.867188	7819.478516
540.865234	7845.071289
538.865234	7925.620605
536.863281	7922.445801
534.861328	7929.261230
532.857422	7964.785156
530.855469	7921.660645
528.851563	7866.078125
526.847656	7930.279785
524.843750	7711.338379
522.837891	7827.913086
520.832031	7865.895996
518.826172	7992.343750
516.820313	7929.341797
514.812500	7904.984863
512.806641	7812.143555
510.796875	7845.097168
508.789063	7757.292480
506.781250	7989.352051
504.771484	7783.358887
502.761719	7963.055176
500.750000	7995.925293
498.740234	8090.939453
496.728516	7978.337402
494.716797	7961.470703
492.705078	8005.484375
490.691406	7950.114258
488.677734	7971.756348
486.664063	7979.730469
484.650391	8003.833984
482.634766	7924.938477
480.619141	7864.687500
478.603516	7873.915039
476.587891	7997.205566
474.570313	7997.716309
472.552734	7957.330078
470.535156	8070.593262
468.517578	7995.523438
466.498047	7919.250977
464.478516	7933.392090
462.458984	7947.524902
460.439453	7959.174805
458.417969	7972.054199
456.396484	8013.373047
454.375000	7937.201172
452.353516	7751.042480
450.330078	7982.710449
448.306641	7944.901855
446.283203	8007.169434
444.257813	8073.109375
442.234375	8076.046875
440.208984	7930.856445
438.181641	8194.212891
436.156250	8382.177734
434.128906	8681.059570
432.101563	8726.995117
430.074219	9185.908203
428.044922	9369.736328
426.017578	9517.736328
423.988281	9432.828125
421.957031	9453.878906
419.927734	9333.317383
417.896484	9457.784180
415.865234	9631.414063
413.833984	10316.796875
411.800781	11519.699219
409.767578	12215.332031
407.734375	15260.123047
405.701172	19335.882813
403.666016	20138.398438
401.630859	18759.847656
399.595703	18129.978516
397.560547	17466.037109
395.523438	17189.126953
393.486328	17648.740234
391.449219	18292.169922
389.410156	17702.443359
387.373047	15144.657227
385.333984	12721.796875
383.294922	10978.003906
381.253906	10105.163086
379.212891	9690.967773
377.171875	9686.077148
375.130859	10537.138672
373.087891	12321.855469
371.046875	16988.000000
369.001953	21675.035156
366.958984	21297.677734
364.916016	17798.207031
362.871094	14510.804688
360.824219	12498.773438
358.779297	11427.526367
356.732422	10852.851563
354.685547	10748.722656
352.638672	10611.673828
350.591797	10756.702148
348.542969	11057.881836
346.494141	11160.012695
344.445313	11260.869141
342.394531	10960.427734
340.343750	11462.420898
338.292969	12379.824219
336.242188	14049.887695
334.189453	15317.043945
332.138672	14907.534180
330.083984	12956.591797
328.031250	11570.302734
325.976563	10800.574219
323.921875	10252.692383
321.867188	9691.707031
319.812500	9466.669922
317.755859	9312.265625
315.699219	9295.294922
313.642578	9117.919922
311.583984	9069.415039
309.525391	8900.687500
307.466797	8620.328125
305.408203	8448.156250
303.347656	8191.113770
301.287109	8294.571289
299.226563	8451.347656
297.166016	8612.892578
295.103516	8801.026367
293.041016	8847.243164
290.978516	8865.563477
288.914063	9011.078125
286.849609	9048.720703
284.785156	9300.666016
282.720703	9207.470703
280.654297	9097.377930
278.587891	8919.584961
276.521484	8824.135742
274.453125	8969.383789
272.386719	8950.132813
270.318359	9121.860352
268.248047	9127.951172
266.179688	9394.975586
264.109375	9676.350586
262.039063	9873.058594
259.968750	10457.142578
257.896484	10916.621094
255.824219	11726.941406
253.751953	12864.912109
251.677734	14256.720703
249.603516	16597.757813
247.529297	20406.730469
245.455078	26788.580078
243.378906	37903.523438
241.304688	55273.652344
239.226563	70012.453125
237.150391	68024.953125
235.072266	52833.191406
232.994141	35855.695313
230.916016	23944.425781
228.835938	17426.058594
226.757813	13779.231445
224.675781	11789.122070
222.595703	10869.329102
220.513672	10080.938477
218.431641	9512.706055
216.349609	9144.051758
214.267578	8942.411133
212.183594	8628.089844
210.099609	8485.464844
208.013672	8294.944336
205.929688	8237.600586
203.843750	7992.107910
201.757813	8126.591797
199.669922	7772.242188
197.582031	7837.247070
195.494141	7754.946289
193.406250	7816.326172
191.316406	7758.004395
189.226563	7758.333008
187.136719	7825.637207
185.046875	7645.391113
182.955078	7753.328613
180.863281	7699.871582
178.769531	7816.096680
176.677734	7767.425293
174.583984	7856.101563
172.490234	7840.867676
170.394531	7850.703125
168.298828	8052.629883
166.203125	8163.790039
164.107422	8606.409180
162.009766	8816.309570
159.912109	8903.331055
157.814453	9536.038086
155.716797	12749.811523
153.617188	17872.082031
151.517578	18486.376953
149.416016	16488.871094
147.316406	14682.832031
145.214844	13286.997070
143.113281	11140.269531
141.009766	9516.664063
138.906250	8351.572266
136.802734	8153.233398
134.699219	8028.656738
132.593750	8278.271484
130.488281	8304.520508
128.382813	8360.430664
126.275391	9013.233398
124.167969	10541.250000
122.060547	11780.211914
119.951172	11444.988281
117.843750	10316.883789
115.734375	9251.019531
113.623047	8529.323242
111.513672	8568.448242
109.402344	8148.101074
107.289063	8025.120605
105.177734	8150.739746
103.064453	8648.986328
100.951172	8740.058594
98.835938	8393.543945
96.722656	8228.094727
94.607422	8251.833008
92.490234	8442.153320
90.375000	8038.212891
88.257813	7805.722168
86.140625	7439.952637
84.021484	6891.445313
81.902344	6903.700195
79.783203	6761.419434
77.664063	6672.282227
75.542969	6561.971680
73.421875	6452.898926
71.300781	6453.465332
69.177734	6364.504883
67.054688	6425.150391
64.931641	6462.214355
62.806641	6488.663086
60.683594	6538.627930
58.556641	6409.762695
56.431641	6443.253906
54.304688	6421.468750
52.177734	6375.011230
50.050781	6412.003418
47.921875	6417.256348
45.792969	6314.464355
43.664063	6337.348145
41.533203	6511.623047
39.402344	6427.659180
37.271484	6422.333008
35.140625	6441.634766
33.007813	6490.232910
