#Wave		#Intensity
1945.189453	12219.228516
1943.490234	12310.416992
1941.789063	12658.395508
1940.089844	12588.692383
1938.388672	12363.181641
1936.687500	12330.288086
1934.986328	12423.785156
1933.285156	12555.451172
1931.583984	12557.790039
1929.880859	12513.121094
1928.179688	12252.579102
1926.476563	12385.640625
1924.773438	12323.394531
1923.070313	12390.338867
1921.367188	12535.041992
1919.664063	12534.422852
1917.958984	12582.215820
1916.255859	12449.560547
1914.550781	12440.145508
1912.845703	12436.595703
1911.140625	12471.164063
1909.435547	12533.569336
1907.730469	12450.849609
1906.023438	12382.808594
1904.316406	12408.558594
1902.611328	12475.313477
1900.904297	12363.352539
1899.197266	12286.572266
1897.488281	12457.261719
1895.781250	12371.701172
1894.074219	12227.619141
1892.365234	12339.684570
1890.656250	12362.454102
1888.947266	12290.121094
1887.238281	12270.466797
1885.529297	12294.689453
1883.818359	12330.597656
1882.109375	12338.713867
1880.398438	12272.277344
1878.687500	12232.166992
1876.976563	12234.441406
1875.265625	12227.946289
1873.554688	12141.113281
1871.841797	12204.730469
1870.130859	12317.968750
1868.417969	12169.838867
1866.705078	12059.708984
1864.992188	12134.958984
1863.279297	11972.337891
1861.564453	12050.489258
1859.851563	12154.865234
1858.136719	12127.946289
1856.421875	12328.502930
1854.707031	12260.736328
1852.992188	12131.771484
1851.277344	12139.839844
1849.562500	12217.844727
1847.845703	12048.153320
1846.128906	11917.847656
1844.412109	11950.694336
1842.695313	12019.928711
1840.978516	11911.525391
1839.261719	11953.080078
1837.542969	11862.184570
1835.824219	12158.361328
1834.105469	12015.083008
1832.386719	11855.853516
1830.667969	12038.430664
1828.949219	11879.248047
1827.228516	11891.662109
1825.509766	12052.324219
1823.789063	11893.215820
1822.068359	11805.357422
1820.347656	12018.237305
1818.626953	11947.811523
1816.904297	12057.478516
1815.183594	11901.401367
1813.460938	11935.545898
1811.738281	11907.264648
1810.015625	11620.688477
1808.292969	11708.539063
1806.568359	11810.860352
1804.845703	11914.592773
1803.121094	11857.325195
1801.396484	11710.187500
1799.671875	11764.587891
1797.947266	11655.196289
1796.222656	11839.994141
1794.496094	12110.199219
1792.769531	11837.115234
1791.044922	11846.535156
1789.318359	11763.278320
1787.589844	11640.960938
1785.863281	11708.299805
1784.136719	11774.165039
1782.408203	11693.865234
1780.679688	11623.719727
1778.951172	11666.414063
1777.222656	11662.814453
1775.494141	11414.867188
1773.763672	11534.183594
1772.035156	11952.629883
1770.304688	11586.266602
1768.574219	11503.209961
1766.843750	11548.741211
1765.111328	11504.711914
1763.380859	11426.041016
1761.648438	11419.581055
1759.917969	11528.595703
1758.185547	11592.828125
1756.453125	11530.061523
1754.718750	11473.085938
1752.986328	11556.036133
1751.251953	11615.879883
1749.517578	11607.933594
1747.785156	11354.927734
1746.048828	11357.117188
1744.314453	11438.558594
1742.580078	11381.657227
1740.843750	11264.276367
1739.107422	11463.775391
1737.371094	11494.728516
1735.634766	11432.091797
1733.898438	11199.631836
1732.160156	11391.787109
1730.423828	11221.287109
1728.685547	11386.029297
1726.947266	11511.872070
1725.208984	11357.257813
1723.470703	11231.453125
1721.730469	11163.192383
1719.992188	11353.645508
1718.251953	11213.538086
1716.511719	11250.185547
1714.771484	11383.052734
1713.029297	11535.971680
1711.289063	11206.401367
1709.546875	11201.382813
1707.804688	11177.706055
1706.062500	11182.735352
1704.320313	11154.762695
1702.578125	11397.904297
1700.833984	11077.331055
1699.091797	11238.658203
1697.347656	11134.707031
1695.603516	11126.826172
1693.857422	11068.789063
1692.113281	11169.808594
1690.369141	11137.566406
1688.623047	11122.520508
1686.876953	11325.130859
1685.130859	11322.935547
1683.384766	11253.463867
1681.636719	10935.005859
1679.890625	11213.320313
1678.142578	11139.612305
1676.394531	11148.885742
1674.646484	11148.143555
1672.896484	11218.883789
1671.148438	11259.577148
1669.398438	11165.913086
1667.650391	10963.689453
1665.900391	10954.401367
1664.148438	10960.826172
1662.398438	11107.193359
1660.648438	11032.200195
1658.896484	10988.638672
1657.144531	10993.617188
1655.392578	11008.579102
1653.640625	10973.601563
1651.886719	11017.083984
1650.134766	11030.600586
1648.380859	10994.207031
1646.626953	10812.424805
1644.873047	10894.377930
1643.119141	11078.892578
1641.363281	11129.414063
1639.609375	11026.081055
1637.853516	10890.033203
1636.097656	10799.598633
1634.341797	10983.939453
1632.583984	11023.033203
1630.828125	10623.837891
1629.070313	10692.860352
1627.312500	10800.257813
1625.554688	10736.957031
1623.796875	10840.034180
1622.037109	10974.341797
1620.279297	10855.609375
1618.519531	11019.697266
1616.759766	10812.916016
1615.000000	10822.118164
1613.238281	10846.935547
1611.478516	10839.084961
1609.716797	10922.087891
1607.955078	10851.773438
1606.193359	10883.652344
1604.431641	11048.875977
1602.669922	11060.840820
1600.906250	10811.862305
1599.142578	10677.827148
1597.378906	10721.041016
1595.615234	10615.419922
1593.851563	10769.150391
1592.085938	10952.567383
1590.322266	10715.231445
1588.556641	10798.036133
1586.791016	10807.181641
1585.025391	10812.074219
1583.257813	10705.156250
1581.492188	10683.179688
1579.724609	11014.885742
1577.957031	10743.913086
1576.189453	10813.854492
1574.419922	10660.378906
1572.652344	10795.329102
1570.882813	10708.338867
1569.113281	10529.539063
1567.343750	10470.888672
1565.574219	10595.874023
1563.802734	10555.587891
1562.033203	10577.437500
1560.261719	10621.861328
1558.490234	10568.887695
1556.718750	10480.661133
1554.947266	10764.886719
1553.173828	10623.057617
1551.400391	10372.706055
1549.626953	10618.709961
1547.853516	10633.449219
1546.080078	10504.438477
1544.304688	10496.648438
1542.531250	10471.957031
1540.755859	10596.559570
1538.980469	10377.539063
1537.205078	10224.772461
1535.427734	10491.501953
1533.652344	10417.575195
1531.875000	10366.188477
1530.097656	10335.919922
1528.320313	10608.026367
1526.541016	10463.827148
1524.763672	10444.798828
1522.984375	10480.589844
1521.205078	10434.864258
1519.425781	10241.641602
1517.646484	10427.740234
1515.865234	10415.751953
1514.085938	10261.961914
1512.304688	10311.773438
1510.523438	10391.036133
1508.740234	10352.399414
1506.958984	10142.628906
1505.175781	10306.025391
1503.394531	10170.668945
1501.611328	10247.066406
1499.826172	10228.115234
1498.042969	10312.874023
1496.259766	10121.578125
1494.474609	10116.668945
1492.689453	10197.191406
1490.904297	10025.637695
1489.117188	10085.143555
1487.332031	10183.813477
1485.544922	10107.521484
1483.757813	10095.616211
1481.970703	10192.819336
1480.183594	10127.755859
1478.394531	10005.393555
1476.607422	9996.309570
1474.818359	10064.095703
1473.029297	10140.236328
1471.240234	10460.820313
1469.449219	10120.620117
1467.658203	10191.110352
1465.869141	10088.449219
1464.078125	10097.497070
1462.285156	9962.798828
1460.494141	10058.372070
1458.701172	10019.987305
1456.910156	9936.987305
1455.117188	9854.022461
1453.324219	9949.531250
1451.529297	9999.004883
1449.736328	10024.766602
1447.941406	10010.113281
1446.146484	9796.279297
1444.351563	10026.776367
1442.554688	9982.889648
1440.759766	9947.371094
1438.962891	9911.866211
1437.166016	9869.417969
1435.369141	9714.304688
1433.572266	9852.723633
1431.773438	9775.546875
1429.976563	9847.159180
1428.177734	9768.623047
1426.378906	9737.369141
1424.578125	9728.355469
1422.779297	9662.393555
1420.978516	9843.660156
1419.177734	9880.446289
1417.376953	9914.438477
1415.576172	10041.404297
1413.775391	9753.422852
1411.972656	9901.175781
1410.169922	9638.310547
1408.367188	9779.088867
1406.564453	9728.480469
1404.759766	9923.235352
1402.957031	9754.820313
1401.152344	9799.846680
1399.347656	9797.754883
1397.542969	9873.218750
1395.736328	9792.185547
1393.931641	9729.181641
1392.125000	9693.883789
1390.318359	9492.549805
1388.511719	9584.593750
1386.703125	9608.822266
1384.894531	9721.541992
1383.087891	9604.706055
1381.279297	9591.588867
1379.468750	9731.875977
1377.660156	9622.017578
1375.849609	9723.556641
1374.041016	9606.839844
1372.230469	9589.587891
1370.417969	9561.297852
1368.607422	9632.393555
1366.794922	9431.617188
1364.984375	9491.670898
1363.171875	9506.179688
1361.357422	9650.308594
1359.544922	9561.372070
1357.730469	9522.095703
1355.917969	9510.396484
1354.103516	9395.365234
1352.287109	9485.632813
1350.472656	9457.418945
1348.656250	9489.801758
1346.841797	9205.542969
1345.025391	9495.337891
1343.207031	9531.815430
1341.390625	9258.734375
1339.572266	9315.876953
1337.755859	9368.868164
1335.937500	9882.409180
1334.117188	9581.992188
1332.298828	9501.585938
1330.478516	9473.421875
1328.658203	9182.901367
1326.837891	9358.074219
1325.017578	9310.734375
1323.197266	9294.987305
1321.375000	9143.372070
1319.552734	9133.154297
1317.730469	9335.580078
1315.908203	9195.023438
1314.085938	9114.863281
1312.261719	9155.381836
1310.437500	9365.846680
1308.613281	9174.697266
1306.789063	9191.881836
1304.962891	9072.080078
1303.138672	9004.370117
1301.312500	9140.696289
1299.486328	9111.327148
1297.660156	9120.291016
1295.832031	8999.260742
1294.003906	9173.769531
1292.177734	9138.943359
1290.347656	9135.582031
1288.519531	9163.664063
1286.691406	9060.519531
1284.861328	9102.268555
1283.031250	8943.166016
1281.201172	9057.313477
1279.371094	8995.246094
1277.539063	9049.256836
1275.707031	9050.006836
1273.875000	9054.849609
1272.042969	8991.468750
1270.210938	8929.479492
1268.376953	8973.892578
1266.544922	9055.100586
1264.710938	8889.530273
1262.876953	8972.082031
1261.041016	9015.080078
1259.207031	9169.769531
1257.371094	9005.676758
1255.535156	8961.486328
1253.699219	8773.003906
1251.861328	8931.688477
1250.025391	9030.427734
1248.187500	8889.668945
1246.349609	8860.509766
1244.511719	8919.757813
1242.671875	8917.795898
1240.833984	8898.162109
1238.994141	8844.560547
1237.154297	8868.428711
1235.312500	8957.490234
1233.472656	8909.340820
1231.630859	8945.396484
1229.789063	8848.397461
1227.947266	8819.301758
1226.105469	8787.503906
1224.261719	8742.152344
1222.419922	8939.604492
1220.576172	8818.299805
1218.732422	8858.379883
1216.886719	8914.707031
1215.042969	8853.111328
1213.197266	8695.348633
1211.351563	8723.226563
1209.505859	8753.798828
1207.658203	8769.463867
1205.812500	8693.073242
1203.964844	8647.842773
1202.117188	8754.171875
1200.269531	8717.061523
1198.419922	8786.810547
1196.572266	8755.116211
1194.722656	8599.066406
1192.873047	8534.989258
1191.021484	8670.922852
1189.171875	8646.034180
1187.320313	8595.492188
1185.468750	8562.527344
1183.617188	8713.181641
1181.765625	8608.666016
1179.912109	8539.282227
1178.060547	8550.876953
1176.207031	8562.464844
1174.353516	8637.428711
1172.498047	8709.662109
1170.644531	8570.234375
1168.789063	8546.765625
1166.933594	8575.852539
1165.078125	8516.021484
1163.220703	8538.367188
1161.363281	8540.504883
1159.507813	8527.833008
1157.648438	8420.957031
1155.791016	8557.671875
1153.933594	8566.526367
1152.074219	8372.289063
1150.214844	8424.208008
1148.355469	8611.880859
1146.496094	8584.422852
1144.634766	8595.944336
1142.773438	8541.630859
1140.912109	8659.263672
1139.050781	8510.958984
1137.189453	8452.670898
1135.326172	8621.247070
1133.462891	8416.685547
1131.599609	8378.580078
1129.736328	8437.066406
1127.871094	8429.815430
1126.007813	8381.002930
1124.142578	8341.594727
1122.277344	8440.238281
1120.410156	8309.722656
1118.544922	8352.066406
1116.677734	8363.587891
1114.810547	8438.034180
1112.943359	8338.421875
1111.074219	8406.146484
1109.207031	8543.417969
1107.337891	8548.190430
1105.468750	8587.733398
1103.599609	8199.371094
1101.728516	8479.605469
1099.859375	8356.076172
1097.988281	8439.718750
1096.115234	8433.815430
1094.244141	8293.013672
1092.373047	8464.744141
1090.500000	8497.552734
1088.626953	8352.825195
1086.753906	8341.605469
1084.878906	8527.842773
1083.005859	8461.900391
1081.130859	8470.664063
1079.255859	8371.430664
1077.378906	8236.251953
1075.503906	8201.081055
1073.626953	8319.143555
1071.750000	8230.686523
1069.873047	8323.385742
1067.996094	8370.772461
1066.117188	8355.574219
1064.238281	8252.545898
1062.359375	8398.374023
1060.480469	8230.199219
1058.601563	8369.315430
1056.720703	8404.656250
1054.839844	8188.734863
1052.958984	8253.337891
1051.078125	8254.130859
1049.195313	8304.075195
1047.312500	8311.495117
1045.429688	8364.057617
1043.546875	8305.083008
1041.664063	8128.008789
1039.779297	8106.266602
1037.894531	8166.784180
1036.009766	8239.210938
1034.125000	8200.216797
1032.240234	8165.217285
1030.353516	8281.332031
1028.466797	8105.863281
1026.580078	8191.465820
1024.691406	8316.765625
1022.804688	8310.907227
1020.916016	8224.291016
1019.027344	8188.011719
1017.138672	8249.674805
1015.248047	9007.225586
1013.357422	8190.376465
1011.468750	8134.297852
1009.576172	8120.551758
1007.685547	8089.627441
1005.792969	8157.831543
1003.902344	8136.159668
1002.009766	8131.668945
1000.115234	8203.776367
998.222656	8158.340332
996.328125	8107.644043
994.433594	8111.079102
992.539063	8147.497559
990.644531	8121.899414
988.748047	8131.920410
986.853516	8166.987793
984.957031	8138.763672
983.058594	8204.125000
981.162109	8131.104004
979.263672	8338.707031
977.365234	8222.224609
975.466797	8157.147461
973.568359	7948.607910
971.667969	8104.730957
969.769531	8297.625000
967.869141	8066.830078
965.968750	8146.533203
964.066406	8086.816895
962.164063	8015.295410
960.263672	7864.945801
958.359375	8079.963867
956.457031	8120.157227
954.554688	8143.256836
952.650391	8138.769531
950.746094	8058.139160
948.841797	8003.795410
946.935547	8059.702637
945.029297	7926.666016
943.125000	8217.344727
941.216797	8170.879395
939.310547	8091.658203
937.404297	8222.188477
935.496094	8076.158691
933.587891	7964.257813
931.679688	8089.486328
929.769531	8150.489258
927.859375	7927.361816
925.951172	8038.111816
924.039063	8157.970215
922.128906	7928.450195
920.216797	8066.589844
918.306641	8052.968750
916.394531	7877.232910
914.480469	7836.210449
912.568359	7904.979492
910.654297	7822.159180
908.740234	8094.668457
906.826172	8084.972656
904.912109	8017.833008
902.996094	8053.843750
901.080078	8037.636719
899.164063	8072.319824
897.248047	8050.895996
895.332031	8098.600098
893.414063	8051.102051
891.496094	7982.768555
889.578125	8051.304199
887.658203	8003.847168
885.740234	7845.688477
883.820313	7854.298828
881.900391	7938.421875
879.978516	8083.686035
878.058594	7946.474121
876.136719	7944.640625
874.214844	7879.067383
872.292969	8030.710449
870.369141	8043.159180
868.447266	7885.311523
866.523438	7861.396973
864.599609	8081.764648
862.673828	8011.049316
860.750000	7924.780762
858.824219	7878.802734
856.898438	7874.384766
854.972656	7964.708496
853.044922	7861.659668
851.117188	7953.240234
849.189453	7972.149902
847.261719	7984.567383
845.333984	8026.792969
843.404297	7905.700195
841.474609	7951.810547
839.544922	7908.514160
837.615234	7887.254395
835.683594	7846.581543
833.753906	7786.508789
831.822266	7972.363770
829.888672	8066.263672
827.957031	7957.021484
826.023438	8037.946777
824.089844	8081.335938
822.156250	8058.775391
820.222656	7962.557129
818.287109	7999.470703
816.351563	8040.241211
814.416016	7980.253906
812.480469	8082.986328
810.542969	7937.814941
808.605469	7975.977539
806.667969	7925.089355
804.730469	8005.805176
802.792969	8112.276855
800.853516	8036.891602
798.914063	8007.947754
796.974609	7995.771484
795.033203	8055.756348
793.093750	7935.363281
791.152344	8216.852539
789.210938	8159.568848
787.269531	8140.930176
785.326172	8326.933594
783.382813	8411.199219
781.439453	8391.225586
779.496094	8242.649414
777.550781	8275.440430
775.607422	8225.943359
773.662109	8199.601563
771.716797	8141.148438
769.769531	8039.045410
767.824219	8024.322266
765.876953	7945.404297
763.929688	8021.850586
761.980469	8064.891602
760.033203	8097.646484
758.083984	8162.455566
756.134766	8136.175293
754.183594	7953.478516
752.234375	8078.521973
750.283203	8167.621094
748.332031	8086.264648
746.380859	8116.392578
744.429688	7946.716797
742.476563	7901.317383
740.523438	7822.656738
738.570313	7912.964355
736.615234	7895.751465
734.662109	8015.418945
732.707031	8050.622559
730.751953	8074.301270
728.794922	8000.817871
726.839844	8096.062500
724.882813	8179.762207
722.925781	8083.310059
720.968750	8272.969727
719.009766	8225.056641
717.050781	8086.534668
715.091797	8116.533203
713.132813	8232.000977
711.173828	8181.587891
709.212891	8036.826172
707.251953	7975.005859
705.291016	8006.265137
703.330078	8026.039551
701.367188	8050.899414
699.404297	7971.297363
697.441406	8110.769531
695.478516	8141.954590
693.513672	8115.844727
691.548828	8057.932129
689.583984	7950.427246
687.619141	7949.817383
685.652344	7930.132324
683.685547	8047.762695
681.718750	8082.717285
679.751953	7967.704102
677.785156	7906.103516
675.816406	7768.321777
673.847656	7907.434082
671.878906	7816.688965
669.908203	7845.295898
667.937500	7679.737793
665.966797	7766.720215
663.996094	7966.543945
662.025391	7861.938477
660.052734	7732.026855
658.080078	7727.653320
656.107422	7901.949219
654.134766	7802.521973
652.160156	7822.196289
650.185547	7592.409668
648.210938	7729.855469
646.236328	7644.481934
644.259766	7666.701660
642.283203	7747.101563
640.306641	7773.078613
638.330078	7783.868652
636.353516	7757.992676
634.375000	7845.873047
632.396484	7763.133789
630.416016	7648.852051
628.437500	7773.317383
626.457031	7829.540039
624.476563	7827.667969
622.496094	7761.433105
620.513672	7749.482422
618.533203	7714.830566
616.550781	7801.261719
614.568359	7795.610840
612.583984	7754.667480
610.599609	7798.176270
608.615234	7796.306641
606.630859	7631.947754
604.646484	7641.450684
602.660156	7710.120605
600.673828	7708.269531
598.687500	7595.679688
596.701172	7764.955566
594.712891	7831.009766
592.724609	7689.545898
590.736328	7760.613281
588.746094	7742.406738
586.757813	7624.937500
584.767578	7651.996094
582.777344	7744.351563
580.785156	7762.576172
578.794922	7817.196777
576.802734	7684.785156
574.810547	7681.676758
572.818359	7836.630859
570.824219	7585.161133
568.830078	7829.085938
566.835938	7871.068848
564.841797	7834.075684
562.845703	7627.951172
560.849609	7761.392090
558.853516	7929.833008
556.857422	7646.205078
554.859375	7774.534180
552.861328	7782.662598
550.863281	7780.776855
548.865234	7672.570801
546.865234	7817.021484
544.867188	7776.368652
542.867188	7749.482910
540.865234	7756.349121
538.865234	7873.149414
536.863281	7846.256836
534.861328	7870.572266
532.857422	7796.251465
530.855469	7698.251465
528.851563	7814.918457
526.847656	7884.123047
524.843750	7752.495605
522.837891	7710.706543
520.832031	7634.032715
518.826172	7797.925293
516.820313	7889.470703
514.812500	7841.456055
512.806641	7783.500488
510.796875	7847.587402
508.789063	7849.403809
506.781250	7730.507324
504.771484	7755.987793
502.761719	7813.794922
500.750000	7804.420898
498.740234	7961.643555
496.728516	7846.586914
494.716797	7827.267578
492.705078	7959.518555
490.691406	7855.721680
488.677734	7970.514648
486.664063	7845.659180
484.650391	7928.126953
482.634766	7757.431152
480.619141	7640.159180
478.603516	7852.832031
476.587891	7811.224121
474.570313	7908.467285
472.552734	7958.569336
470.535156	7987.583008
468.517578	7849.362305
466.498047	7846.188477
464.478516	7786.064941
462.458984	7735.871582
460.439453	7860.180176
458.417969	7748.134277
456.396484	7811.770996
454.375000	7783.873047
452.353516	7789.364746
450.330078	7849.232910
448.306641	7985.676758
446.283203	7846.581055
444.257813	7891.566406
442.234375	7771.080566
440.208984	7880.247070
438.181641	8026.379395
436.156250	8060.166016
434.128906	8498.507813
432.101563	8665.336914
430.074219	8796.330078
428.044922	8960.534180
426.017578	9235.555664
423.988281	9167.964844
421.957031	9158.291992
419.927734	9066.124023
417.896484	9068.787109
415.865234	9112.060547
413.833984	9760.661133
411.800781	10420.006836
409.767578	11371.708008
407.734375	15948.624023
405.701172	20996.474609
403.666016	21515.939453
401.630859	19371.662109
399.595703	18008.382813
397.560547	17182.386719
395.523438	16624.423828
393.486328	16830.123047
391.449219	17432.039063
389.410156	16622.951172
387.373047	14298.450195
385.333984	12097.722656
383.294922	10544.081055
381.253906	9651.742188
379.212891	9349.150391
377.171875	9412.937500
375.130859	10050.998047
373.087891	11597.112305
371.046875	15456.875977
369.001953	19323.255859
366.958984	18972.181641
364.916016	16230.331055
362.871094	13448.292969
360.824219	11777.573242
358.779297	10902.039063
356.732422	10191.881836
354.685547	9996.312500
352.638672	9863.117188
350.591797	10102.338867
348.542969	10153.478516
346.494141	10102.092773
344.445313	10192.239258
342.394531	10087.203125
340.343750	10237.047852
338.292969	10987.764648
336.242188	11619.887695
334.189453	11887.400391
332.138672	11590.824219
330.083984	10552.802734
328.031250	9968.186523
325.976563	9672.319336
323.921875	9498.281250
321.867188	9046.972656
319.812500	8983.850586
317.755859	8788.229492
315.699219	8986.545898
313.642578	8872.441406
311.583984	8805.776367
309.525391	8637.116211
307.466797	8390.825195
305.408203	8463.938477
303.347656	8181.404297
301.287109	8214.489258
299.226563	8314.272461
297.166016	8711.125000
295.103516	8488.219727
293.041016	8676.334961
290.978516	8701.969727
288.914063	8860.853516
286.849609	9002.696289
284.785156	9234.068359
282.720703	8945.991211
280.654297	8900.109375
278.587891	8816.741211
276.521484	8628.177734
274.453125	8859.337891
272.386719	8811.099609
270.318359	8938.142578
268.248047	8995.032227
266.179688	9016.856445
264.109375	9446.881836
262.039063	9638.819336
259.968750	10120.360352
257.896484	10606.475586
255.824219	11332.423828
253.751953	12203.936523
251.677734	13411.422852
249.603516	15609.222656
247.529297	18678.449219
245.455078	24675.183594
243.378906	34319.878906
241.304688	49444.976563
239.226563	61874.917969
237.150391	59583.824219
235.072266	45639.714844
232.994141	31157.943359
230.916016	21432.000000
228.835938	15891.825195
226.757813	12832.006836
224.675781	11188.250000
222.595703	10538.935547
220.513672	9861.134766
218.431641	9326.583008
216.349609	9003.595703
214.267578	8895.604492
212.183594	8701.280273
210.099609	8367.911133
208.013672	8314.131836
205.929688	8058.965332
203.843750	7942.966309
201.757813	8127.790039
199.669922	7895.630371
197.582031	7856.408691
195.494141	7825.587402
193.406250	7831.887207
191.316406	7796.297852
189.226563	7806.187012
187.136719	8089.960449
185.046875	7922.796387
182.955078	7883.626465
180.863281	7805.038574
178.769531	7994.115723
176.677734	7748.314453
174.583984	7956.407227
172.490234	7768.045898
170.394531	7811.318359
168.298828	7969.108398
166.203125	8142.319336
164.107422	8323.782227
162.009766	8445.536133
159.912109	8608.937500
157.814453	9121.375977
155.716797	10987.971680
153.617188	13483.555664
151.517578	14208.566406
149.416016	13588.172852
147.316406	13273.927734
145.214844	12538.718750
143.113281	10740.661133
141.009766	9266.976563
138.906250	8443.099609
136.802734	8169.870117
134.699219	8110.630371
132.593750	8367.348633
130.488281	8333.017578
128.382813	8613.273438
126.275391	9460.631836
124.167969	12174.935547
122.060547	13655.415039
119.951172	12640.237305
117.843750	10911.974609
115.734375	9406.269531
113.623047	8627.661133
111.513672	8549.497070
109.402344	8169.415527
107.289063	8209.796875
105.177734	8472.650391
103.064453	9047.715820
100.951172	9196.637695
98.835938	8598.121094
96.722656	8407.788086
94.607422	8400.749023
92.490234	8591.028320
90.375000	8253.195313
88.257813	7998.208008
86.140625	7632.385742
84.021484	7135.755859
81.902344	7202.219238
79.783203	7050.419434
77.664063	6835.020996
75.542969	6836.664551
73.421875	6804.125488
71.300781	6773.958984
69.177734	6704.934570
67.054688	6882.070801
64.931641	6757.717285
62.806641	6755.836426
60.683594	6612.756836
58.556641	6692.079590
56.431641	6677.276367
54.304688	6629.561035
52.177734	6721.734863
50.050781	6665.804199
47.921875	6670.986328
45.792969	6503.534668
43.664063	6561.585938
41.533203	6827.345215
39.402344	6635.343750
37.271484	6708.552246
35.140625	6723.082520
33.007813	6690.708008
