#Wave		#Intensity
1945.189453	12063.326172
1943.490234	12325.124023
1941.789063	12527.517578
1940.089844	12315.216797
1938.388672	12301.439453
1936.687500	12361.154297
1934.986328	12322.384766
1933.285156	12464.352539
1931.583984	12405.004883
1929.880859	12377.987305
1928.179688	12345.100586
1926.476563	12544.223633
1924.773438	12364.501953
1923.070313	12289.055664
1921.367188	12510.092773
1919.664063	12249.750000
1917.958984	12347.472656
1916.255859	12374.749023
1914.550781	12268.546875
1912.845703	12477.655273
1911.140625	12440.375000
1909.435547	12398.705078
1907.730469	12406.879883
1906.023438	12264.109375
1904.316406	12130.174805
1902.611328	12141.310547
1900.904297	12345.776367
1899.197266	12276.321289
1897.488281	12247.883789
1895.781250	12421.475586
1894.074219	12157.362305
1892.365234	12221.146484
1890.656250	12344.895508
1888.947266	12249.159180
1887.238281	12064.228516
1885.529297	12361.960938
1883.818359	12060.093750
1882.109375	12173.514648
1880.398438	12226.965820
1878.687500	12344.697266
1876.976563	12089.785156
1875.265625	12170.970703
1873.554688	12120.664063
1871.841797	12092.278320
1870.130859	12225.977539
1868.417969	11993.189453
1866.705078	12059.708984
1864.992188	12021.125977
1863.279297	11966.501953
1861.564453	11906.058594
1859.851563	11915.647461
1858.136719	12056.485352
1856.421875	12101.034180
1854.707031	12068.296875
1852.992188	12048.686523
1851.277344	12068.429688
1849.562500	12207.644531
1847.845703	12036.499023
1846.128906	11914.934570
1844.412109	11978.365234
1842.695313	12094.188477
1840.978516	12044.004883
1839.261719	11950.168945
1837.542969	11841.810547
1835.824219	12146.720703
1834.105469	12116.917969
1832.386719	11906.761719
1830.667969	11852.285156
1828.949219	11882.156250
1827.228516	11788.446289
1825.509766	11792.150391
1823.789063	11730.454102
1822.068359	11866.381836
1820.347656	12077.797852
1818.626953	12005.909180
1816.904297	11807.703125
1815.183594	11860.748047
1813.460938	11870.220703
1811.738281	11960.965820
1810.015625	11797.727539
1808.292969	11776.729492
1806.568359	11876.137695
1804.845703	11888.486328
1803.121094	11658.664063
1801.396484	11760.930664
1799.671875	11660.219727
1797.947266	11598.673828
1796.222656	11709.582031
1794.496094	11811.753906
1792.769531	11640.120117
1791.044922	11748.054688
1789.318359	11724.182617
1787.589844	11480.266602
1785.863281	11550.530273
1784.136719	11470.259766
1782.408203	11570.878906
1780.679688	11545.601563
1778.951172	11880.476563
1777.222656	11548.572266
1775.494141	11417.758789
1773.763672	11560.203125
1772.035156	11923.723633
1770.304688	11606.497070
1768.574219	11607.232422
1766.843750	11462.072266
1765.111328	11334.292969
1763.380859	11245.545898
1761.648438	11283.875000
1759.917969	11405.904297
1758.185547	11494.694336
1756.453125	11234.270508
1754.718750	11396.626953
1752.986328	11273.336914
1751.251953	11450.041016
1749.517578	11414.732422
1747.785156	11360.694336
1746.048828	11247.582031
1744.314453	11468.819336
1742.580078	11424.878906
1740.843750	11378.071289
1739.107422	11378.805664
1737.371094	11262.904297
1735.634766	11226.224609
1733.898438	11261.524414
1732.160156	11410.495117
1730.423828	11307.616211
1728.685547	11404.729492
1726.947266	11342.157227
1725.208984	11207.706055
1723.470703	11096.307617
1721.730469	11147.379883
1719.992188	11212.802734
1718.251953	11110.081055
1716.511719	11096.466797
1714.771484	11380.179688
1713.029297	11392.364258
1711.289063	11174.813477
1709.546875	11054.959961
1707.804688	11222.199219
1706.062500	11136.816406
1704.320313	11037.118164
1702.578125	11201.388672
1700.833984	11255.165039
1699.091797	11214.283203
1697.347656	11151.910156
1695.603516	11086.693359
1693.857422	10977.074219
1692.113281	11260.072266
1690.369141	11041.589844
1688.623047	10939.197266
1686.876953	11210.577148
1685.130859	11155.431641
1683.384766	11044.482422
1681.636719	11010.853516
1679.890625	11259.106445
1678.142578	11079.529297
1676.394531	10828.506836
1674.646484	11002.285156
1672.896484	11020.155273
1671.148438	11085.187500
1669.398438	11121.609375
1667.650391	11037.990234
1665.900391	10991.544922
1664.148438	10993.677734
1662.398438	10967.247070
1660.648438	10782.344727
1658.896484	10898.708984
1657.144531	10893.713867
1655.392578	10795.969727
1653.640625	10745.341797
1651.886719	10917.240234
1650.134766	11040.583008
1648.380859	10887.273438
1646.626953	10734.022461
1644.873047	10931.433594
1643.119141	10906.474609
1641.363281	10887.222656
1639.609375	10806.727539
1637.853516	10720.566406
1636.097656	10806.717773
1634.341797	10929.844727
1632.583984	10964.680664
1630.828125	10810.246094
1629.070313	10660.138672
1627.312500	10669.397461
1625.554688	10670.118164
1623.796875	10682.210938
1622.037109	10877.676758
1620.279297	10665.160156
1618.519531	10906.018555
1616.759766	10734.777344
1615.000000	10681.497070
1613.238281	10721.964844
1611.478516	10665.864258
1609.716797	10899.375000
1607.955078	10817.710938
1606.193359	10774.390625
1604.431641	10844.582031
1602.669922	10623.966797
1600.906250	10794.844727
1599.142578	10572.906250
1597.378906	10664.337891
1595.615234	10689.119141
1593.851563	10599.111328
1592.085938	10632.391602
1590.322266	10488.604492
1588.556641	10581.367188
1586.791016	10614.625977
1585.025391	10625.219727
1583.257813	10570.705078
1581.492188	10647.804688
1579.724609	10656.964844
1577.957031	10844.336914
1576.189453	10741.734375
1574.419922	10783.382813
1572.652344	10810.877930
1570.882813	10589.624023
1569.113281	10557.798828
1567.343750	10428.507813
1565.574219	10552.088867
1563.802734	10535.818359
1562.033203	10666.382813
1560.261719	10579.514648
1558.490234	10485.624023
1556.718750	10579.428711
1554.947266	10642.158203
1553.173828	10632.929688
1551.400391	10326.172852
1549.626953	10501.695313
1547.853516	10489.677734
1546.080078	10435.386719
1544.304688	10492.421875
1542.531250	10466.322266
1540.755859	10412.063477
1538.980469	10295.870117
1537.205078	10295.162109
1535.427734	10371.864258
1533.652344	10496.378906
1531.875000	10302.876953
1530.097656	10286.688477
1528.320313	10456.141602
1526.541016	10428.675781
1524.763672	10467.291016
1522.984375	10352.692383
1521.205078	10332.286133
1519.425781	10286.598633
1517.646484	10365.937500
1515.865234	10342.728516
1514.085938	10245.113281
1512.304688	10280.891602
1510.523438	10224.027344
1508.740234	10353.801758
1506.958984	10117.376953
1505.175781	10303.220703
1503.394531	10250.598633
1501.611328	10127.897461
1499.826172	10184.663086
1498.042969	10202.163086
1496.259766	10141.193359
1494.474609	10143.284180
1492.689453	10101.956055
1490.904297	10091.448242
1489.117188	9897.551758
1487.332031	10088.637695
1485.544922	9999.771484
1483.757813	10064.836914
1481.970703	10254.364258
1480.183594	10194.882813
1478.394531	10022.171875
1476.607422	10098.355469
1474.818359	9973.251953
1473.029297	10085.741211
1471.240234	10318.325195
1469.449219	10020.056641
1467.658203	9999.800781
1465.869141	9918.121094
1464.078125	9950.934570
1462.285156	9973.962891
1460.494141	10023.490234
1458.701172	9990.692383
1456.910156	9896.541992
1455.117188	9834.500977
1453.324219	9739.026367
1451.529297	9958.584961
1449.736328	9942.550781
1447.941406	9959.958008
1446.146484	9839.458984
1444.351563	9959.931641
1442.554688	9893.781250
1440.759766	9854.105469
1438.962891	9874.290039
1437.166016	9858.287109
1435.369141	9909.064453
1433.572266	9895.839844
1431.773438	9813.091797
1429.976563	9911.110352
1428.177734	9847.851563
1426.378906	9817.968750
1424.578125	9653.330078
1422.779297	9656.836914
1420.978516	9713.115234
1419.177734	9837.403320
1417.376953	9815.877930
1415.576172	9927.597656
1413.775391	9835.291992
1411.972656	9733.312500
1410.169922	9451.064453
1408.367188	9695.885742
1406.564453	9599.543945
1404.759766	9723.633789
1402.957031	9764.520508
1401.152344	9838.641602
1399.347656	9754.812500
1397.542969	9705.641602
1395.736328	9580.334961
1393.931641	9599.052734
1392.125000	9519.493164
1390.318359	9427.513672
1388.511719	9602.579102
1386.703125	9614.354492
1384.894531	9500.283203
1383.087891	9536.959961
1381.279297	9566.708008
1379.468750	9751.223633
1377.660156	9631.689453
1375.849609	9647.581055
1374.041016	9613.745117
1372.230469	9503.978516
1370.417969	9608.235352
1368.607422	9548.201172
1366.794922	9275.688477
1364.984375	9591.001953
1363.171875	9457.904297
1361.357422	9544.125000
1359.544922	9431.773438
1357.730469	9551.041992
1355.917969	9437.356445
1354.103516	9238.292969
1352.287109	9404.359375
1350.472656	9414.725586
1348.656250	9360.370117
1346.841797	9308.791016
1345.025391	9504.972656
1343.207031	9394.211914
1341.390625	9386.678711
1339.572266	9253.982422
1337.755859	9390.870117
1335.937500	9832.914063
1334.117188	9550.377930
1332.298828	9398.516602
1330.478516	9367.627930
1328.658203	9082.625000
1326.837891	9227.605469
1325.017578	9200.889648
1323.197266	9303.223633
1321.375000	9133.764648
1319.552734	9038.474609
1317.730469	9188.790039
1315.908203	9249.886719
1314.085938	9261.588867
1312.261719	9081.349609
1310.437500	9257.563477
1308.613281	9107.548828
1306.789063	9234.354492
1304.962891	8935.101563
1303.138672	8940.003906
1301.312500	9076.344727
1299.486328	9130.492188
1297.660156	9121.659180
1295.832031	8937.687500
1294.003906	9119.049805
1292.177734	8980.291016
1290.347656	9028.924805
1288.519531	9040.625000
1286.691406	9053.685547
1284.861328	9129.598633
1283.031250	8947.264648
1281.201172	8889.307617
1279.371094	8963.837891
1277.539063	9019.219727
1275.707031	8909.411133
1273.875000	9199.508789
1272.042969	8954.629883
1270.210938	8990.864258
1268.376953	8957.527344
1266.544922	8920.113281
1264.710938	9006.766602
1262.876953	8890.306641
1261.041016	8934.685547
1259.207031	8987.218750
1257.371094	9011.125000
1255.535156	9035.019531
1253.699219	8796.147461
1251.861328	8867.715820
1250.025391	8892.984375
1248.187500	9046.128906
1246.349609	8905.397461
1244.511719	8978.234375
1242.671875	9000.733398
1240.833984	8781.259766
1238.994141	8946.487305
1237.154297	8876.581055
1235.312500	9022.695313
1233.472656	8884.894531
1231.630859	8873.431641
1229.789063	8857.899414
1227.947266	8744.653320
1226.105469	8730.512695
1224.261719	8758.431641
1222.419922	8886.707031
1220.576172	8701.680664
1218.732422	8770.257813
1216.886719	8842.869141
1215.042969	8855.822266
1213.197266	8783.413086
1211.351563	8766.571289
1209.505859	8814.740234
1207.658203	8692.289063
1205.812500	8782.414063
1203.964844	8784.530273
1202.117188	8767.702148
1200.269531	8790.109375
1198.419922	8763.819336
1196.572266	8687.509766
1194.722656	8543.640625
1192.873047	8570.128906
1191.021484	8749.294922
1189.171875	8650.086914
1187.320313	8671.128906
1185.468750	8616.541016
1183.617188	8609.228516
1181.765625	8584.371094
1179.912109	8626.996094
1178.060547	8557.622070
1176.207031	8647.442383
1174.353516	8664.399414
1172.498047	8613.936523
1170.644531	8589.105469
1168.789063	8453.778320
1166.933594	8577.200195
1165.078125	8304.535156
1163.220703	8534.326172
1161.363281	8551.276367
1159.507813	8429.564453
1157.648438	8376.544922
1155.791016	8456.755859
1153.933594	8429.311523
1152.074219	8427.431641
1150.214844	8395.969727
1148.355469	8653.555664
1146.496094	8623.400391
1144.634766	8509.944336
1142.773438	8557.751953
1140.912109	8426.899414
1139.050781	8482.759766
1137.189453	8291.565430
1135.326172	8505.813477
1133.462891	8424.737305
1131.599609	8447.003906
1129.736328	8528.278320
1127.871094	8373.491211
1126.007813	8297.875977
1124.142578	8178.060059
1122.277344	8307.563477
1120.410156	8309.722656
1118.544922	8416.365234
1116.677734	8399.748047
1114.810547	8496.947266
1112.943359	8428.111328
1111.074219	8442.281250
1109.207031	8488.557617
1107.337891	8419.766602
1105.468750	8439.277344
1103.599609	8300.994141
1101.728516	8373.994141
1099.859375	8408.201172
1097.988281	8453.081055
1096.115234	8334.955078
1094.244141	8442.605469
1092.373047	8385.958984
1090.500000	8381.404297
1088.626953	8312.782227
1086.753906	8394.983398
1084.878906	8534.513672
1083.005859	8425.886719
1081.130859	8610.686523
1079.255859	8323.433594
1077.378906	8461.518555
1075.503906	8046.494141
1073.626953	8133.948242
1071.750000	8351.902344
1069.873047	8350.020508
1067.996094	8429.356445
1066.117188	8487.357422
1064.238281	8240.568359
1062.359375	8349.144531
1060.480469	8307.353516
1058.601563	8375.964844
1056.720703	8360.778320
1054.839844	8217.980469
1052.958984	8232.073242
1051.078125	8315.252930
1049.195313	8241.638672
1047.312500	8154.774902
1045.429688	8229.946289
1043.546875	8259.946289
1041.664063	8238.169922
1039.779297	8155.363281
1037.894531	8044.733398
1036.009766	8119.840820
1034.125000	8253.258789
1032.240234	8224.875000
1030.353516	8244.219727
1028.466797	8013.103516
1026.580078	8137.147461
1024.691406	8318.089844
1022.804688	8351.958984
1020.916016	8159.418457
1019.027344	8153.597168
1017.138672	8202.034180
1015.248047	8900.059570
1013.357422	8375.559570
1011.468750	8172.648438
1009.576172	8227.644531
1007.685547	8201.983398
1005.792969	8178.976074
1003.902344	8223.361328
1002.009766	8062.980469
1000.115234	8220.944336
998.222656	8237.560547
996.328125	8090.483887
994.433594	8099.201660
992.539063	8242.497070
990.644531	8173.345215
988.748047	8127.963867
986.853516	8206.543945
984.957031	8180.947266
983.058594	8247.616211
981.162109	8200.938477
979.263672	8400.621094
977.365234	8079.985352
975.466797	8046.541992
973.568359	7984.151855
971.667969	8031.027832
969.769531	8350.258789
967.869141	8244.426758
965.968750	8246.491211
964.066406	8190.696289
962.164063	8186.197266
960.263672	8075.238281
958.359375	8278.382813
956.457031	8126.726074
954.554688	8123.555664
952.650391	8184.729004
950.746094	8167.104004
948.841797	8079.921875
946.935547	8209.296875
945.029297	8102.464355
943.125000	8141.270996
941.216797	8207.596680
939.310547	8085.103027
937.404297	8206.459961
935.496094	8085.331543
933.587891	7909.232422
931.679688	8030.543945
929.769531	8037.870117
927.859375	7975.803223
925.951172	8083.924316
924.039063	8176.291016
922.128906	8081.524414
920.216797	8154.227539
918.306641	8113.124512
916.394531	7955.678223
914.480469	7944.701660
912.568359	7897.138184
910.654297	7857.435059
908.740234	8167.817383
906.826172	8124.150391
904.912109	8127.505371
902.996094	8043.401367
901.080078	7907.134277
899.164063	8127.118164
897.248047	8069.158203
895.332031	8118.161621
893.414063	8068.051758
891.496094	8041.427246
889.578125	8149.045898
887.658203	8052.055176
885.740234	8067.134277
883.820313	8014.484375
881.900391	7983.992676
879.978516	7947.005371
878.058594	7943.871094
876.136719	7889.993652
874.214844	8057.279785
872.292969	7964.383789
870.369141	8126.373047
868.447266	8021.803223
866.523438	8029.047852
864.599609	8047.981934
862.673828	8078.598145
860.750000	7976.729492
858.824219	8038.508301
856.898438	7988.619141
854.972656	8028.301758
853.044922	7995.303711
851.117188	7985.670410
849.189453	7989.009766
847.261719	8004.016602
845.333984	7981.421875
843.404297	8006.789551
841.474609	8023.074707
839.544922	7938.309082
837.615234	8021.946777
835.683594	7856.939941
833.753906	7932.789063
831.822266	7949.067871
829.888672	8156.837402
827.957031	8085.089355
826.023438	8118.132324
824.089844	8012.806152
822.156250	8076.873535
820.222656	7996.160156
818.287109	8008.515137
816.351563	8104.831543
814.416016	8026.748535
812.480469	8116.558105
810.542969	7930.069824
808.605469	8059.867188
806.667969	7873.477051
804.730469	8065.145996
802.792969	8131.622559
800.853516	8082.020508
798.914063	8147.171875
796.974609	8105.320313
795.033203	8196.204102
793.093750	8110.559570
791.152344	8354.658203
789.210938	8265.152344
787.269531	8285.108398
785.326172	8445.337891
783.382813	8453.660156
781.439453	8580.327148
779.496094	8469.003906
777.550781	8325.586914
775.607422	8439.336914
773.662109	8337.118164
771.716797	8133.438965
769.769531	8254.859375
767.824219	8041.018066
765.876953	8003.184570
763.929688	8115.560547
761.980469	8086.709473
760.033203	8056.587402
758.083984	8099.598145
756.134766	8197.735352
754.183594	8181.709961
752.234375	8218.249023
750.283203	8304.751953
748.332031	8174.674316
746.380859	8256.021484
744.429688	8013.312500
742.476563	7919.243164
740.523438	7971.147461
738.570313	8043.503418
736.615234	8113.265137
734.662109	8162.525879
732.707031	8026.323730
730.751953	8129.280762
728.794922	8137.594727
726.839844	8258.367188
724.882813	8258.978516
722.925781	8372.000000
720.968750	8345.763672
719.009766	8541.699219
717.050781	8243.541992
715.091797	8305.409180
713.132813	8295.794922
711.173828	8261.949219
709.212891	8066.157715
707.251953	8107.604004
705.291016	8137.557129
703.330078	8087.209473
701.367188	8085.299805
699.404297	8238.790039
697.441406	8285.235352
695.478516	8344.389648
693.513672	8085.295898
691.548828	8232.274414
689.583984	8043.303223
687.619141	8024.863770
685.652344	8092.905762
683.685547	8238.467773
681.718750	8053.482910
679.751953	8027.430176
677.785156	8025.527344
675.816406	7990.600586
673.847656	7949.339355
671.878906	7948.723145
669.908203	7898.604980
667.937500	7873.888672
665.966797	7948.138184
663.996094	7840.976563
662.025391	7874.619141
660.052734	7828.375977
658.080078	7839.189453
656.107422	7792.974609
654.134766	7737.912598
652.160156	7850.060547
650.185547	7792.476563
648.210938	7779.227539
646.236328	7553.355469
644.259766	7775.520996
642.283203	7785.052734
640.306641	7808.491211
638.330078	7925.485352
636.353516	7909.688965
634.375000	7968.464844
632.396484	7837.682129
630.416016	7717.066406
628.437500	7913.502441
626.457031	7976.004883
624.476563	7890.784180
622.496094	7697.069824
620.513672	7828.970703
618.533203	7823.312500
616.550781	7782.344727
614.568359	7822.087891
612.583984	7919.794434
610.599609	7910.334961
608.615234	8020.570313
606.630859	7844.821289
604.646484	7805.160156
602.660156	7746.631836
600.673828	7806.448242
598.687500	7786.955566
596.701172	7827.859863
594.712891	7974.397949
592.724609	7790.145020
590.736328	7864.959961
588.746094	7802.736816
586.757813	7844.839355
584.767578	7842.950684
582.777344	7799.614258
580.785156	7811.547363
578.794922	7888.752930
576.802734	7699.845703
574.810547	7773.274414
572.818359	7903.117188
570.824219	7736.914551
568.830078	7963.248535
566.835938	7945.028809
564.841797	7725.042969
562.845703	7710.645996
560.849609	7787.697754
558.853516	7972.412598
556.857422	7712.562988
554.859375	8018.623047
552.861328	7867.760254
550.863281	7748.247559
548.865234	7820.168457
546.865234	7935.821289
544.867188	7922.644043
542.867188	7775.731445
540.865234	7820.079102
538.865234	7843.166016
536.863281	7947.426270
534.861328	7866.826172
532.857422	7946.059082
530.855469	7977.825195
528.851563	7798.697266
526.847656	7814.263672
524.843750	7812.360352
522.837891	7926.416992
520.832031	7779.881836
518.826172	7967.418457
516.820313	7881.995117
514.812500	7804.085938
512.806641	8022.609375
510.796875	7818.950684
508.789063	7737.376465
506.781250	7913.440918
504.771484	7830.636719
502.761719	7857.329102
500.750000	8002.143066
498.740234	8044.939941
496.728516	7937.320801
494.716797	8008.690430
492.705078	8080.023438
490.691406	7902.917969
488.677734	7923.329590
486.664063	8062.904297
484.650391	8046.031250
482.634766	7916.252930
480.619141	7806.384766
478.603516	7893.757813
476.587891	7889.336426
474.570313	7995.237305
472.552734	7987.072266
470.535156	8013.601074
468.517578	7900.146973
466.498047	7879.624023
464.478516	7903.679199
462.458984	7898.015625
460.439453	7939.375977
458.417969	7949.786133
456.396484	7908.243164
454.375000	7992.844238
452.353516	7898.151367
450.330078	7857.884277
448.306641	8052.398926
446.283203	8059.051758
444.257813	7979.250488
442.234375	7901.956543
440.208984	7999.980957
438.181641	8134.977539
436.156250	8167.503418
434.128906	8520.709961
432.101563	8559.286133
430.074219	8813.589844
428.044922	9011.068359
426.017578	9189.963867
423.988281	9368.768555
421.957031	9179.229492
419.927734	9042.728516
417.896484	9137.723633
415.865234	9306.510742
413.833984	9776.656250
411.800781	10447.069336
409.767578	11226.594727
407.734375	15545.359375
405.701172	20113.939453
403.666016	20967.873047
401.630859	19073.125000
399.595703	17987.501953
397.560547	17145.548828
395.523438	16839.255859
393.486328	17269.501953
391.449219	17528.972656
389.410156	16815.542969
387.373047	14332.789063
385.333984	12156.574219
383.294922	10537.952148
381.253906	9901.736328
379.212891	9483.916992
377.171875	9618.710938
375.130859	10357.131836
373.087891	12133.324219
371.046875	17166.691406
369.001953	21615.078125
366.958984	20942.919922
364.916016	17509.582031
362.871094	14370.195313
360.824219	12482.882813
358.779297	11376.200195
356.732422	10684.250000
354.685547	10506.875977
352.638672	10161.074219
350.591797	10231.747070
348.542969	10298.720703
346.494141	10231.434570
344.445313	10219.077148
342.394531	10218.918945
340.343750	10455.298828
338.292969	11036.523438
336.242188	11675.945313
334.189453	11796.024414
332.138672	11445.877930
330.083984	10703.800781
328.031250	10166.625000
325.976563	9740.477539
323.921875	9420.406250
321.867188	9258.639648
319.812500	9071.414063
317.755859	8891.578125
315.699219	9050.969727
313.642578	8906.468750
311.583984	8859.233398
309.525391	8809.591797
307.466797	8564.470703
305.408203	8415.378906
303.347656	8220.242188
301.287109	8356.453125
299.226563	8349.451172
297.166016	8665.041016
295.103516	8735.554688
293.041016	8814.516602
290.978516	8821.938477
288.914063	8882.660156
286.849609	9046.298828
284.785156	9297.033203
282.720703	9082.784180
280.654297	8995.717773
278.587891	8936.523438
276.521484	8810.829102
274.453125	8831.523438
272.386719	8884.847656
270.318359	8986.489258
268.248047	9143.660156
266.179688	9361.150391
264.109375	9487.944336
262.039063	9652.101563
259.968750	10196.408203
257.896484	10690.951172
255.824219	11247.970703
253.751953	12171.370117
251.677734	13601.946289
249.603516	15668.293945
247.529297	18862.847656
245.455078	24684.822266
243.378906	34242.785156
241.304688	49047.566406
239.226563	61000.843750
237.150391	59128.847656
235.072266	45669.796875
232.994141	31287.869141
230.916016	21661.714844
228.835938	16015.669922
226.757813	12967.839844
224.675781	11273.573242
222.595703	10568.971680
220.513672	9801.079102
218.431641	9561.939453
216.349609	9189.669922
214.267578	8942.411133
212.183594	8932.850586
210.099609	8645.001953
208.013672	8504.806641
205.929688	8261.578125
203.843750	8054.434082
201.757813	8307.529297
199.669922	7992.663574
197.582031	8019.285645
195.494141	7877.071777
193.406250	7944.403809
191.316406	8046.401855
189.226563	7998.799316
187.136719	8177.270508
185.046875	7939.536133
182.955078	7994.798340
180.863281	7851.646484
178.769531	8077.748535
176.677734	7911.952148
174.583984	8019.695801
172.490234	7853.999512
170.394531	7921.118164
168.298828	8082.458496
166.203125	8222.239258
164.107422	8447.803711
162.009766	8649.401367
159.912109	8840.162109
157.814453	9197.634766
155.716797	11177.378906
153.617188	14187.387695
151.517578	14538.361328
149.416016	13459.623047
147.316406	12771.767578
145.214844	11897.507813
143.113281	10503.988281
141.009766	9217.039063
138.906250	8389.609375
136.802734	8209.085938
134.699219	8183.099609
132.593750	8364.973633
130.488281	8476.690430
128.382813	8648.884766
126.275391	9480.806641
124.167969	12032.566406
122.060547	13500.037109
119.951172	12436.286133
117.843750	10840.848633
115.734375	9454.859375
113.623047	8718.889648
111.513672	8543.574219
109.402344	8246.384766
107.289063	8313.972656
105.177734	8445.430664
103.064453	9054.814453
100.951172	9213.197266
98.835938	8665.524414
96.722656	8531.918945
94.607422	8492.934570
92.490234	8620.567383
90.375000	8390.216797
88.257813	8139.915527
86.140625	7705.581055
84.021484	7199.489258
81.902344	7183.340820
79.783203	7056.317383
77.664063	7008.373047
75.542969	6902.685059
73.421875	6841.840820
71.300781	6704.439941
69.177734	6726.137695
67.054688	6832.610352
64.931641	6780.086426
62.806641	6882.949707
60.683594	6640.996582
58.556641	6732.074219
56.431641	6726.667969
54.304688	6791.802246
52.177734	6708.806152
50.050781	6792.705078
47.921875	6692.130371
45.792969	6537.590332
43.664063	6609.720703
41.533203	6809.739746
39.402344	6718.651855
37.271484	6926.735352
35.140625	6877.878906
33.007813	6816.151367
