#Wave		#Intensity
1945.189453	12989.916016
1943.490234	13284.072266
1941.789063	13696.595703
1940.089844	13290.024414
1938.388672	13340.770508
1936.687500	13290.078125
1934.986328	13221.764648
1933.285156	13282.771484
1931.583984	13462.750000
1929.880859	13288.672852
1928.179688	13265.916992
1926.476563	13385.595703
1924.773438	13264.458984
1923.070313	13172.716797
1921.367188	13527.161133
1919.664063	13429.529297
1917.958984	13380.340820
1916.255859	13452.918945
1914.550781	13534.268555
1912.845703	13367.763672
1911.140625	13516.537109
1909.435547	13380.868164
1907.730469	13292.143555
1906.023438	13247.407227
1904.316406	13265.685547
1902.611328	13248.794922
1900.904297	13214.331055
1899.197266	13253.096680
1897.488281	13259.633789
1895.781250	13305.691406
1894.074219	13266.835938
1892.365234	13574.824219
1890.656250	13353.030273
1888.947266	13214.696289
1887.238281	13009.123047
1885.529297	13455.862305
1883.818359	13378.983398
1882.109375	13217.334961
1880.398438	13125.899414
1878.687500	13358.929688
1876.976563	13261.649414
1875.265625	13238.907227
1873.554688	13153.359375
1871.841797	13099.967773
1870.130859	13242.253906
1868.417969	13039.947266
1866.705078	13104.826172
1864.992188	13035.413086
1863.279297	13006.876953
1861.564453	12895.190430
1859.851563	12952.742188
1858.136719	13142.983398
1856.421875	13397.313477
1854.707031	13106.304688
1852.992188	13000.512695
1851.277344	13262.009766
1849.562500	13156.221680
1847.845703	13059.208008
1846.128906	13125.363281
1844.412109	13082.267578
1842.695313	13221.193359
1840.978516	12946.613281
1839.261719	12859.895508
1837.542969	12703.350586
1835.824219	13143.426758
1834.105469	12847.220703
1832.386719	12776.569336
1830.667969	12977.888672
1828.949219	12870.881836
1827.228516	12871.488281
1825.509766	12731.103516
1823.789063	12890.129883
1822.068359	12691.666992
1820.347656	12827.394531
1818.626953	12928.211914
1816.904297	12920.075195
1815.183594	12843.699219
1813.460938	13047.516602
1811.738281	12901.471680
1810.015625	12655.347656
1808.292969	12853.277344
1806.568359	12771.164063
1804.845703	12826.860352
1803.121094	12694.022461
1801.396484	12813.499023
1799.671875	12627.073242
1797.947266	12575.496094
1796.222656	12781.861328
1794.496094	12992.494141
1792.769531	12701.868164
1791.044922	12703.887695
1789.318359	12721.832031
1787.589844	12526.954102
1785.863281	12468.203125
1784.136719	12593.262695
1782.408203	12671.971680
1780.679688	12711.589844
1778.951172	12668.747070
1777.222656	12397.433594
1775.494141	12270.800781
1773.763672	12444.890625
1772.035156	12896.410156
1770.304688	12389.704102
1768.574219	12592.561523
1766.843750	12327.324219
1765.111328	12271.596680
1763.380859	12342.954102
1761.648438	12223.716797
1759.917969	12368.666016
1758.185547	12418.310547
1756.453125	12247.172852
1754.718750	12504.552734
1752.986328	12409.901367
1751.251953	12450.837891
1749.517578	12405.249023
1747.785156	12466.346680
1746.048828	12198.812500
1744.314453	12278.654297
1742.580078	12336.852539
1740.843750	12248.100586
1739.107422	12323.558594
1737.371094	12357.229492
1735.634766	12259.877930
1733.898438	12292.103516
1732.160156	12157.379883
1730.423828	12254.353516
1728.685547	12436.162109
1726.947266	12285.659180
1725.208984	12266.068359
1723.470703	12144.404297
1721.730469	12149.279297
1719.992188	12195.827148
1718.251953	12059.870117
1716.511719	12148.074219
1714.771484	12167.297852
1713.029297	12423.463867
1711.289063	12003.268555
1709.546875	11956.467773
1707.804688	12061.818359
1706.062500	12056.633789
1704.320313	11903.674805
1702.578125	12272.900391
1700.833984	12065.456055
1699.091797	12153.466797
1697.347656	12049.338867
1695.603516	12009.748047
1693.857422	12021.759766
1692.113281	12222.888672
1690.369141	11941.189453
1688.623047	11903.073242
1686.876953	12161.377930
1685.130859	12239.192383
1683.384766	12113.719727
1681.636719	11888.115234
1679.890625	12056.072266
1678.142578	11959.311523
1676.394531	11909.784180
1674.646484	12076.202148
1672.896484	11889.415039
1671.148438	11924.259766
1669.398438	12000.534180
1667.650391	11811.006836
1665.900391	11967.269531
1664.148438	11824.952148
1662.398438	11889.751953
1660.648438	11914.547852
1658.896484	11783.738281
1657.144531	11926.997070
1655.392578	11783.388672
1653.640625	11542.825195
1651.886719	11761.635742
1650.134766	12117.260742
1648.380859	11839.696289
1646.626953	11576.494141
1644.873047	11820.770508
1643.119141	11993.703125
1641.363281	11771.934570
1639.609375	11772.453125
1637.853516	11741.640625
1636.097656	11710.836914
1634.341797	11778.267578
1632.583984	11750.311523
1630.828125	11543.071289
1629.070313	11586.302734
1627.312500	11689.255859
1625.554688	11583.115234
1623.796875	11668.960938
1622.037109	11757.614258
1620.279297	11604.615234
1618.519531	11717.398438
1616.759766	11582.933594
1615.000000	11518.120117
1613.238281	11623.746094
1611.478516	11547.586914
1609.716797	11677.292969
1607.955078	11508.897461
1606.193359	11718.018555
1604.431641	11789.439453
1602.669922	11770.050781
1600.906250	11756.339844
1599.142578	11551.223633
1597.378906	11697.743164
1595.615234	11601.846680
1593.851563	11558.416016
1592.085938	11585.835938
1590.322266	11633.073242
1588.556641	11600.985352
1586.791016	11468.382813
1585.025391	11569.400391
1583.257813	11434.023438
1581.492188	11564.718750
1579.724609	11575.108398
1577.957031	11369.085938
1576.189453	11588.797852
1574.419922	11365.886719
1572.652344	11562.889648
1570.882813	11438.999023
1569.113281	11262.875977
1567.343750	11222.442383
1565.574219	11254.054688
1563.802734	11529.950195
1562.033203	11410.417969
1560.261719	11512.544922
1558.490234	11302.740234
1556.718750	11351.227539
1554.947266	11515.368164
1553.173828	11446.724609
1551.400391	11262.480469
1549.626953	11432.171875
1547.853516	11328.344727
1546.080078	11135.776367
1544.304688	11226.483398
1542.531250	11173.467773
1540.755859	11352.853516
1538.980469	11228.018555
1537.205078	11086.339844
1535.427734	11250.144531
1533.652344	11176.061523
1531.875000	11125.924805
1530.097656	11199.590820
1528.320313	11209.939453
1526.541016	11275.118164
1524.763672	11298.094727
1522.984375	11285.923828
1521.205078	11099.513672
1519.425781	11173.083984
1517.646484	11246.621094
1515.865234	11234.463867
1514.085938	11091.736328
1512.304688	10937.835938
1510.523438	11248.535156
1508.740234	11131.144531
1506.958984	11112.000000
1505.175781	11165.795898
1503.394531	11134.029297
1501.611328	11053.204102
1499.826172	11000.445313
1498.042969	10998.156250
1496.259766	10866.965820
1494.474609	10979.569336
1492.689453	10940.868164
1490.904297	10871.375977
1489.117188	10850.909180
1487.332031	10983.010742
1485.544922	10805.797852
1483.757813	10802.141602
1481.970703	10780.300781
1480.183594	10873.143555
1478.394531	10849.895508
1476.607422	10758.159180
1474.818359	10750.316406
1473.029297	10873.821289
1471.240234	11046.167969
1469.449219	10770.094727
1467.658203	10836.258789
1465.869141	10856.322266
1464.078125	10965.708984
1462.285156	10818.267578
1460.494141	10922.032227
1458.701172	10919.735352
1456.910156	10907.674805
1455.117188	10742.236328
1453.324219	10689.787109
1451.529297	10821.336914
1449.736328	10812.087891
1447.941406	10666.308594
1446.146484	10540.088867
1444.351563	10709.154297
1442.554688	10624.746094
1440.759766	10721.333984
1438.962891	10703.757813
1437.166016	10590.179688
1435.369141	10574.027344
1433.572266	10701.136719
1431.773438	10522.270508
1429.976563	10640.993164
1428.177734	10674.875977
1426.378906	10582.284180
1424.578125	10466.110352
1422.779297	10481.946289
1420.978516	10542.215820
1419.177734	10601.068359
1417.376953	10605.756836
1415.576172	10660.405273
1413.775391	10519.376953
1411.972656	10676.677734
1410.169922	10372.037109
1408.367188	10479.377930
1406.564453	10400.892578
1404.759766	10517.880859
1402.957031	10555.827148
1401.152344	10467.671875
1399.347656	10537.469727
1397.542969	10597.541016
1395.736328	10541.276367
1393.931641	10482.265625
1392.125000	10313.938477
1390.318359	10353.244141
1388.511719	10417.435547
1386.703125	10441.485352
1384.894531	10484.883789
1383.087891	10336.084961
1381.279297	10221.905273
1379.468750	10407.663086
1377.660156	10346.017578
1375.849609	10515.089844
1374.041016	10456.208008
1372.230469	10257.889648
1370.417969	10346.798828
1368.607422	10391.501953
1366.794922	10211.260742
1364.984375	10330.469727
1363.171875	10199.971680
1361.357422	10244.662109
1359.544922	10202.473633
1357.730469	10256.791016
1355.917969	10187.052734
1354.103516	10180.723633
1352.287109	10321.790039
1350.472656	9998.669922
1348.656250	10054.342773
1346.841797	10038.406250
1345.025391	10275.720703
1343.207031	10248.731445
1341.390625	10217.625977
1339.572266	9921.072266
1337.755859	10123.823242
1335.937500	10708.692383
1334.117188	10266.518555
1332.298828	10297.278320
1330.478516	10146.660156
1328.658203	9945.281250
1326.837891	9954.113281
1325.017578	9979.416016
1323.197266	10251.804688
1321.375000	9997.045898
1319.552734	9990.759766
1317.730469	9998.193359
1315.908203	9968.590820
1314.085938	10030.874023
1312.261719	9905.306641
1310.437500	9903.152344
1308.613281	9913.332031
1306.789063	10045.443359
1304.962891	9792.586914
1303.138672	9715.132813
1301.312500	9858.151367
1299.486328	9786.189453
1297.660156	9797.743164
1295.832031	9900.965820
1294.003906	9949.421875
1292.177734	9854.248047
1290.347656	9761.849609
1288.519531	9866.352539
1286.691406	9786.291016
1284.861328	9629.738281
1283.031250	9661.789063
1281.201172	9650.116211
1279.371094	9723.114258
1277.539063	9808.367188
1275.707031	9744.795898
1273.875000	9876.405273
1272.042969	9666.852539
1270.210938	9627.904297
1268.376953	9620.340820
1266.544922	9723.222656
1264.710938	9695.190430
1262.876953	9660.354492
1261.041016	9580.567383
1259.207031	9703.797852
1257.371094	9694.858398
1255.535156	9681.836914
1253.699219	9608.916992
1251.861328	9676.222656
1250.025391	9558.426758
1248.187500	9647.481445
1246.349609	9578.708984
1244.511719	9418.850586
1242.671875	9509.233398
1240.833984	9566.951172
1238.994141	9564.845703
1237.154297	9462.193359
1235.312500	9559.275391
1233.472656	9638.657227
1231.630859	9544.200195
1229.789063	9510.873047
1227.947266	9529.134766
1226.105469	9498.537109
1224.261719	9393.336914
1222.419922	9567.587891
1220.576172	9440.719727
1218.732422	9605.390625
1216.886719	9558.540039
1215.042969	9549.652344
1213.197266	9487.928711
1211.351563	9397.786133
1209.505859	9629.991211
1207.658203	9469.450195
1205.812500	9547.219727
1203.964844	9495.033203
1202.117188	9522.698242
1200.269531	9451.599609
1198.419922	9460.326172
1196.572266	9420.370117
1194.722656	9187.117188
1192.873047	9298.610352
1191.021484	9314.114258
1189.171875	9309.346680
1187.320313	9168.165039
1185.468750	9353.828125
1183.617188	9440.854492
1181.765625	9287.587891
1179.912109	9373.238281
1178.060547	9089.185547
1176.207031	9077.723633
1174.353516	9354.854492
1172.498047	9296.148438
1170.644531	9205.116211
1168.789063	9194.983398
1166.933594	9236.051758
1165.078125	9172.032227
1163.220703	9362.575195
1161.363281	9161.215820
1159.507813	9101.291016
1157.648438	8952.566406
1155.791016	9075.707031
1153.933594	9031.981445
1152.074219	8926.407227
1150.214844	9069.637695
1148.355469	9163.063477
1146.496094	9212.092773
1144.634766	9292.004883
1142.773438	9236.192383
1140.912109	9266.365234
1139.050781	9167.611328
1137.189453	9050.103516
1135.326172	9297.739258
1133.462891	9105.104492
1131.599609	9048.061523
1129.736328	9088.960938
1127.871094	9085.586914
1126.007813	9052.716797
1124.142578	8966.242188
1122.277344	9091.548828
1120.410156	8982.325195
1118.544922	9114.268555
1116.677734	9059.996094
1114.810547	9092.778320
1112.943359	9104.126953
1111.074219	9107.439453
1109.207031	9358.287109
1107.337891	9099.340820
1105.468750	9219.007813
1103.599609	9036.423828
1101.728516	9185.458984
1099.859375	9196.762695
1097.988281	9276.208008
1096.115234	9129.842773
1094.244141	8947.479492
1092.373047	8982.858398
1090.500000	9104.998047
1088.626953	8878.713867
1086.753906	9023.505859
1084.878906	9129.541992
1083.005859	9134.157227
1081.130859	9093.428711
1079.255859	8804.734375
1077.378906	8977.367188
1075.503906	8880.728516
1073.626953	9022.621094
1071.750000	8923.348633
1069.873047	9009.232422
1067.996094	9003.207031
1066.117188	8965.236328
1064.238281	8940.590820
1062.359375	9054.331055
1060.480469	8896.649414
1058.601563	8953.159180
1056.720703	8980.390625
1054.839844	8858.722656
1052.958984	8766.346680
1051.078125	8760.380859
1049.195313	8973.608398
1047.312500	8898.533203
1045.429688	8848.718750
1043.546875	9024.608398
1041.664063	8903.116211
1039.779297	8982.045898
1037.894531	8864.595703
1036.009766	8788.315430
1034.125000	8800.912109
1032.240234	8882.441406
1030.353516	8769.092773
1028.466797	8651.819336
1026.580078	8761.145508
1024.691406	8790.949219
1022.804688	8774.389648
1020.916016	8883.611328
1019.027344	8841.887695
1017.138672	8716.812500
1015.248047	9484.840820
1013.357422	8857.035156
1011.468750	8697.655273
1009.576172	8659.982422
1007.685547	8749.222656
1005.792969	8720.804688
1003.902344	8741.285156
1002.009766	8674.573242
1000.115234	8922.201172
998.222656	8782.858398
996.328125	8765.020508
994.433594	8847.490234
992.539063	8733.325195
990.644531	8764.316406
988.748047	8907.393555
986.853516	8765.601563
984.957031	8784.697266
983.058594	8766.881836
981.162109	8745.120117
979.263672	9101.441406
977.365234	8696.356445
975.466797	8833.947266
973.568359	8568.646484
971.667969	8607.493164
969.769531	8754.218750
967.869141	8718.017578
965.968750	8652.896484
964.066406	8611.473633
962.164063	8626.597656
960.263672	8677.201172
958.359375	8834.216797
956.457031	8703.453125
954.554688	8660.748047
952.650391	8723.111328
950.746094	8660.727539
948.841797	8640.371094
946.935547	8709.255859
945.029297	8705.951172
943.125000	8705.270508
941.216797	8825.231445
939.310547	8694.730469
937.404297	8572.152344
935.496094	8640.952148
933.587891	8518.441406
931.679688	8636.993164
929.769531	8594.418945
927.859375	8625.178711
925.951172	8544.666016
924.039063	8564.953125
922.128906	8591.771484
920.216797	8780.771484
918.306641	8547.289063
916.394531	8457.729492
914.480469	8429.644531
912.568359	8462.993164
910.654297	8504.164063
908.740234	8728.187500
906.826172	8693.533203
904.912109	8550.527344
902.996094	8575.973633
901.080078	8532.240234
899.164063	8586.380859
897.248047	8516.575195
895.332031	8552.434570
893.414063	8586.972656
891.496094	8504.177734
889.578125	8542.619141
887.658203	8531.530273
885.740234	8572.550781
883.820313	8566.668945
881.900391	8520.424805
879.978516	8455.978516
878.058594	8411.081055
876.136719	8439.066406
874.214844	8498.257813
872.292969	8531.411133
870.369141	8652.961914
868.447266	8474.174805
866.523438	8476.117188
864.599609	8630.077148
862.673828	8485.191406
860.750000	8380.630859
858.824219	8468.284180
856.898438	8461.133789
854.972656	8530.556641
853.044922	8525.988281
851.117188	8456.560547
849.189453	8524.636719
847.261719	8601.756836
845.333984	8601.061523
843.404297	8468.171875
841.474609	8429.929688
839.544922	8481.087891
837.615234	8489.483398
835.683594	8425.364258
833.753906	8454.478516
831.822266	8386.512695
829.888672	8543.717773
827.957031	8389.088867
826.023438	8429.821289
824.089844	8461.481445
822.156250	8606.885742
820.222656	8635.904297
818.287109	8524.068359
816.351563	8476.874023
814.416016	8366.416016
812.480469	8549.114258
810.542969	8609.088867
808.605469	8573.530273
806.667969	8525.083984
804.730469	8610.820313
802.792969	8613.974609
800.853516	8601.653320
798.914063	8620.274414
796.974609	8609.244141
795.033203	8496.426758
793.093750	8516.344727
791.152344	8896.868164
789.210938	8789.208984
787.269531	8964.806641
785.326172	8907.373047
783.382813	9112.454102
781.439453	9006.126953
779.496094	8991.163086
777.550781	8960.774414
775.607422	8866.124023
773.662109	8794.650391
771.716797	8635.835938
769.769531	8690.338867
767.824219	8494.376953
765.876953	8566.861328
763.929688	8513.507813
761.980469	8579.535156
760.033203	8608.320313
758.083984	8622.980469
756.134766	8718.429688
754.183594	8658.687500
752.234375	8734.853516
750.283203	8735.369141
748.332031	8715.381836
746.380859	8726.146484
744.429688	8464.117188
742.476563	8504.383789
740.523438	8361.576172
738.570313	8436.400391
736.615234	8444.653320
734.662109	8688.274414
732.707031	8582.641602
730.751953	8556.330078
728.794922	8645.076172
726.839844	8722.277344
724.882813	8836.494141
722.925781	8840.800781
720.968750	8866.815430
719.009766	8887.708984
717.050781	8815.408203
715.091797	8870.758789
713.132813	8886.529297
711.173828	8732.639648
709.212891	8559.691406
707.251953	8567.872070
705.291016	8548.003906
703.330078	8636.466797
701.367188	8634.426758
699.404297	8552.139648
697.441406	8725.858398
695.478516	8719.976563
693.513672	8543.530273
691.548828	8698.036133
689.583984	8637.454102
687.619141	8473.869141
685.652344	8474.407227
683.685547	8677.090820
681.718750	8505.983398
679.751953	8474.740234
677.785156	8456.214844
675.816406	8365.298828
673.847656	8472.522461
671.878906	8321.974609
669.908203	8350.461914
667.937500	8354.824219
665.966797	8354.108398
663.996094	8306.462891
662.025391	8210.653320
660.052734	8346.886719
658.080078	8248.576172
656.107422	8331.513672
654.134766	8153.438965
652.160156	8284.486328
650.185547	8182.480469
648.210938	8238.765625
646.236328	8082.394043
644.259766	8234.839844
642.283203	8315.104492
640.306641	8308.062500
638.330078	8247.916992
636.353516	8287.665039
634.375000	8316.018555
632.396484	8368.365234
630.416016	8101.088379
628.437500	8283.540039
626.457031	8265.145508
624.476563	8408.336914
622.496094	8396.229492
620.513672	8284.451172
618.533203	8206.783203
616.550781	8164.462891
614.568359	8264.633789
612.583984	8360.973633
610.599609	8273.275391
608.615234	8476.656250
606.630859	8256.711914
604.646484	8073.391602
602.660156	8158.324707
600.673828	8206.713867
598.687500	8174.541504
596.701172	8182.642578
594.712891	8293.876953
592.724609	8244.098633
590.736328	8242.116211
588.746094	8135.811523
586.757813	8216.788086
584.767578	8145.713867
582.777344	8079.697266
580.785156	8249.777344
578.794922	8355.750977
576.802734	8253.331055
574.810547	8172.290039
572.818359	8460.098633
570.824219	8136.991699
568.830078	8309.313477
566.835938	8342.405273
564.841797	8212.557617
562.845703	8092.795410
560.849609	8257.439453
558.853516	8271.722656
556.857422	8174.565918
554.859375	8221.404297
552.861328	8169.355469
550.863281	8234.937500
548.865234	8189.162109
546.865234	8317.230469
544.867188	8243.951172
542.867188	8161.955566
540.865234	8221.205078
538.865234	8279.174805
536.863281	8262.175781
534.861328	8223.955078
532.857422	8239.432617
530.855469	8262.390625
528.851563	8083.193848
526.847656	8167.302734
524.843750	8130.392090
522.837891	8225.667969
520.832031	7984.320313
518.826172	8322.605469
516.820313	8242.080078
514.812500	8090.588867
512.806641	8342.666992
510.796875	8221.103516
508.789063	8153.123535
506.781250	8310.419922
504.771484	8195.170898
502.761719	8237.943359
500.750000	8143.905762
498.740234	8414.179688
496.728516	8371.101563
494.716797	8224.906250
492.705078	8389.360352
490.691406	8284.215820
488.677734	8320.675781
486.664063	8417.945313
484.650391	8420.842773
482.634766	8247.543945
480.619141	8208.302734
478.603516	8294.336914
476.587891	8304.695313
474.570313	8267.943359
472.552734	8314.238281
470.535156	8381.572266
468.517578	8308.903320
466.498047	8178.066406
464.478516	8263.950195
462.458984	8248.295898
460.439453	8379.902344
458.417969	8224.428711
456.396484	8378.235352
454.375000	8269.824219
452.353516	8231.928711
450.330078	8292.922852
448.306641	8436.669922
446.283203	8334.521484
444.257813	8359.625977
442.234375	8179.759766
440.208984	8224.637695
438.181641	8447.197266
436.156250	8651.137695
434.128906	8970.920898
432.101563	9085.840820
430.074219	9416.449219
428.044922	9600.220703
426.017578	9788.827148
423.988281	9831.970703
421.957031	9775.331055
419.927734	9641.144531
417.896484	9824.622070
415.865234	9883.706055
413.833984	10642.848633
411.800781	11549.220703
409.767578	12439.150391
407.734375	16539.996094
405.701172	21233.701172
403.666016	21915.316406
401.630859	19645.626953
399.595703	18128.750000
397.560547	17392.361328
395.523438	16930.099609
393.486328	17157.816406
391.449219	17644.310547
389.410156	17097.681641
387.373047	14725.233398
385.333984	12501.102539
383.294922	11036.840820
381.253906	10195.847656
379.212891	10013.183594
377.171875	10003.312500
375.130859	11079.608398
373.087891	13552.205078
371.046875	19959.675781
369.001953	25163.546875
366.958984	24523.523438
364.916016	19784.347656
362.871094	16129.636719
360.824219	13693.033203
358.779297	12412.510742
356.732422	11471.060547
354.685547	11168.900391
352.638672	10872.996094
350.591797	11094.871094
348.542969	11409.390625
346.494141	11563.900391
344.445313	11471.911133
342.394531	11339.718750
340.343750	11616.049805
338.292969	12471.247070
336.242188	13995.048828
334.189453	14899.151367
332.138672	14702.904297
330.083984	13033.307617
328.031250	11601.956055
325.976563	10923.501953
323.921875	10447.379883
321.867188	9863.231445
319.812500	9635.717773
317.755859	9431.419922
315.699219	9498.291016
313.642578	9195.694336
311.583984	9318.474609
309.525391	9137.537109
307.466797	8960.333008
305.408203	8769.864258
303.347656	8556.430664
301.287109	8667.074219
299.226563	8672.123047
297.166016	8963.375000
295.103516	9191.428711
293.041016	9145.423828
290.978516	9162.455078
288.914063	9316.374023
286.849609	9412.075195
284.785156	9596.117188
282.720703	9406.001953
280.654297	9528.223633
278.587891	9314.021484
276.521484	9197.906250
274.453125	9269.291016
272.386719	9200.393555
270.318359	9311.622070
268.248047	9526.709961
266.179688	9651.081055
264.109375	9838.187500
262.039063	10271.506836
259.968750	10845.830078
257.896484	11279.864258
255.824219	11790.884766
253.751953	13098.907227
251.677734	14547.330078
249.603516	16617.046875
247.529297	20419.986328
245.455078	26482.535156
243.378906	37233.773438
241.304688	53679.195313
239.226563	65861.218750
237.150391	63498.062500
235.072266	48549.355469
232.994141	33186.218750
230.916016	22746.542969
228.835938	16919.857422
226.757813	13620.559570
224.675781	11881.656250
222.595703	10951.026367
220.513672	10323.563477
218.431641	9842.925781
216.349609	9525.803711
214.267578	9324.062500
212.183594	9182.417969
210.099609	8799.741211
208.013672	8691.883789
205.929688	8585.279297
203.843750	8398.425781
201.757813	8592.714844
199.669922	8243.033203
197.582031	8216.893555
195.494141	8281.760742
193.406250	8232.877930
191.316406	8271.375977
189.226563	8284.727539
187.136719	8349.499023
185.046875	8173.895996
182.955078	8217.141602
180.863281	8103.807129
178.769531	8388.384766
176.677734	8202.200195
174.583984	8306.284180
172.490234	8278.992188
170.394531	8218.294922
168.298828	8428.474609
166.203125	8651.661133
164.107422	8874.725586
162.009766	9106.013672
159.912109	9176.271484
157.814453	9897.080078
155.716797	12776.019531
153.617188	16997.949219
151.517578	17736.300781
149.416016	16050.850586
147.316406	14779.218750
145.214844	13447.597656
143.113281	11533.930664
141.009766	9730.682617
138.906250	8787.813477
136.802734	8589.355469
134.699219	8437.336914
132.593750	8655.959961
130.488281	8762.848633
128.382813	8786.583008
126.275391	9332.464844
124.167969	10961.238281
122.060547	11886.959961
119.951172	11258.823242
117.843750	10473.362305
115.734375	9447.748047
113.623047	9073.142578
111.513672	8836.137695
109.402344	8574.393555
107.289063	8368.428711
105.177734	8464.366211
103.064453	8941.230469
100.951172	9203.734375
98.835938	8706.913086
96.722656	8626.495117
94.607422	8598.121094
92.490234	8638.290039
90.375000	8423.291016
88.257813	8272.175781
86.140625	7895.652832
84.021484	7416.654297
81.902344	7352.068848
79.783203	7214.382813
77.664063	7116.865234
75.542969	6906.222168
73.421875	6914.915039
71.300781	6898.856934
69.177734	6854.535156
67.054688	7011.610352
64.931641	6960.213379
62.806641	6946.506348
60.683594	6896.329102
58.556641	6920.285156
56.431641	6940.698242
54.304688	6950.516602
52.177734	6982.658691
50.050781	6924.305664
47.921875	6884.777344
45.792969	6736.055176
43.664063	6772.909180
41.533203	6976.403809
39.402344	6911.083008
37.271484	7052.249512
35.140625	7004.530273
33.007813	6894.700195
