#Wave		#Intensity
1945.525391	1710.588135
1943.826172	1694.408936
1942.126953	1804.427368
1940.425781	1787.958374
1938.726563	1756.793213
1937.025391	1728.577393
1935.324219	1759.155884
1933.623047	1758.866455
1931.919922	1757.107544
1930.218750	1758.286499
1928.515625	1725.685303
1926.814453	1707.778564
1925.111328	1750.072754
1923.408203	1787.948608
1921.705078	1808.199097
1920.001953	1813.767944
1918.296875	1776.785400
1916.593750	1738.347656
1914.888672	1786.458618
1913.183594	1777.360596
1911.478516	1835.711426
1909.773438	1848.596924
1908.068359	1796.985474
1906.361328	1754.183716
1904.656250	1799.310181
1902.949219	1841.490967
1901.242188	1803.096191
1899.535156	1796.932739
1897.828125	1717.558716
1896.121094	1857.810669
1894.412109	1812.118408
1892.703125	1789.857300
1890.996094	1808.574219
1889.287109	1767.301392
1887.578125	1799.179565
1885.869141	1851.521362
1884.158203	1782.478149
1882.449219	1796.791992
1880.738281	1821.332764
1879.027344	1828.326538
1877.316406	1790.019043
1875.605469	1867.142334
1873.894531	1793.782837
1872.181641	1771.565063
1870.470703	1828.206909
1868.757813	1785.550293
1867.044922	1801.296997
1865.332031	1763.037354
1863.619141	1746.678833
1861.906250	1806.191406
1860.191406	1770.867065
1858.478516	1821.603027
1856.763672	1799.411133
1855.048828	1784.516235
1853.333984	1817.729614
1851.617188	1830.526978
1849.902344	1825.833252
1848.185547	1818.226929
1846.470703	1826.646118
1844.753906	1824.867065
1843.037109	1807.070557
1841.320313	1856.250610
1839.601563	1815.164063
1837.884766	1835.216919
1836.166016	1855.262329
1834.447266	1846.203125
1832.728516	1831.328247
1831.009766	1865.905640
1829.291016	1859.756104
1827.570313	1794.002197
1825.851563	1851.823120
1824.130859	1854.397827
1822.410156	1848.253052
1820.689453	1887.145752
1818.968750	1920.214111
1817.246094	1848.708374
1815.525391	1838.211304
1813.802734	1830.620972
1812.080078	1860.770996
1810.357422	1806.740234
1808.634766	1884.763550
1806.912109	1922.139404
1805.187500	1852.171021
1803.464844	1814.130859
1801.740234	1902.243652
1800.015625	1890.300415
1798.291016	1879.810425
1796.564453	1875.120239
1794.839844	1925.486572
1793.113281	1900.509033
1791.386719	1911.747559
1789.660156	1902.708984
1787.933594	1899.464478
1786.207031	1875.955811
1784.480469	1927.711182
1782.751953	1889.735474
1781.023438	1880.707153
1779.294922	1923.753296
1777.566406	1890.136353
1775.837891	1897.016602
1774.107422	1870.644409
1772.378906	1983.036255
1770.648438	1851.165161
1768.917969	1899.945801
1767.187500	1885.147339
1765.457031	1879.019653
1763.724609	1862.785767
1761.994141	1873.988770
1760.261719	1948.700439
1758.529297	1948.336670
1756.796875	1927.771484
1755.064453	1918.754883
1753.330078	1854.929932
1751.597656	1938.226074
1749.863281	1917.676392
1748.128906	1924.524292
1746.394531	1937.134521
1744.660156	1909.390137
1742.923828	1913.353027
1741.189453	1907.230347
1739.453125	1928.474121
1737.716797	1929.549927
1735.980469	1874.476929
1734.244141	1967.684448
1732.507813	1942.846436
1730.769531	1974.133423
1729.031250	1968.004517
1727.292969	1927.357666
1725.554688	1968.694946
1723.816406	2004.264893
1722.076172	1891.757813
1720.337891	1930.202515
1718.597656	1926.960449
1716.857422	1985.496582
1715.117188	2006.663330
1713.376953	2024.949341
1711.634766	1922.615601
1709.894531	1992.590942
1708.152344	2006.561890
1706.410156	1983.216187
1704.667969	1981.400513
1702.923828	2025.488525
1701.181641	1957.691040
1699.437500	1996.030151
1697.695313	2017.150146
1695.951172	1959.426025
1694.205078	1994.875122
1692.460938	1983.027100
1690.716797	1988.373657
1688.970703	1962.208008
1687.224609	2103.594971
1685.478516	2104.618896
1683.732422	2034.070068
1681.984375	2049.417725
1680.238281	2091.945801
1678.490234	2071.510498
1676.742188	1986.718140
1674.994141	1993.481201
1673.246094	2084.597412
1671.496094	2047.023926
1669.748047	2066.633057
1667.998047	2064.800049
1666.248047	2128.685303
1664.498047	2131.125488
1662.748047	2042.166382
1660.996094	2084.600098
1659.244141	2034.227661
1657.494141	2038.109863
1655.742188	2106.203613
1653.988281	2114.349609
1652.236328	2185.253662
1650.484375	2129.204346
1648.730469	2124.507080
1646.976563	2145.471436
1645.222656	2130.794922
1643.468750	2165.998779
1641.712891	2166.995361
1639.958984	2122.408936
1638.203125	2134.806152
1636.447266	2191.337891
1634.691406	2207.986328
1632.933594	2167.695557
1631.177734	2244.108398
1629.419922	2218.052979
1627.662109	2231.836426
1625.904297	2227.125732
1624.146484	2304.886230
1622.388672	2293.053955
1620.628906	2305.388428
1618.869141	2356.085693
1617.111328	2361.298096
1615.349609	2407.701904
1613.589844	2300.706055
1611.830078	2324.384033
1610.068359	2446.005859
1608.306641	2436.999512
1606.544922	2500.367920
1604.783203	2434.603027
1603.021484	2475.250000
1601.257813	2457.734131
1599.494141	2411.866699
1597.730469	2530.461914
1595.966797	2576.724609
1594.203125	2484.096680
1592.439453	2511.931152
1590.673828	2507.174805
1588.908203	2520.830566
1587.142578	2510.409912
1585.376953	2515.564941
1583.611328	2567.423584
1581.843750	2530.112305
1580.076172	2550.821289
1578.308594	2570.106934
1576.541016	2607.768799
1574.773438	2536.544434
1573.003906	2615.191895
1571.236328	2620.313721
1569.466797	2570.324463
1567.697266	2616.422363
1565.927734	2573.515869
1564.156250	2572.991455
1562.386719	2631.766602
1560.615234	2636.876221
1558.843750	2623.636230
1557.072266	2549.727051
1555.298828	2546.384521
1553.527344	2681.267090
1551.753906	2690.589844
1549.980469	2599.807129
1548.207031	2610.551270
1546.433594	2666.388184
1544.660156	2720.792725
1542.884766	2682.198975
1541.109375	2740.802246
1539.333984	2724.749756
1537.558594	2680.546387
1535.783203	2719.406738
1534.005859	2751.214355
1532.228516	2770.345703
1530.451172	2782.435303
1528.673828	2779.048828
1526.896484	2729.261963
1525.117188	2869.280762
1523.339844	2805.439453
1521.560547	2743.029297
1519.781250	2738.247559
1518.001953	2803.700195
1516.220703	2890.190918
1514.439453	2864.319092
1512.660156	2881.974854
1510.878906	2882.781006
1509.095703	2806.410156
1507.314453	2908.240479
1505.531250	2930.078857
1503.750000	2919.653809
1501.966797	2882.593994
1500.183594	2938.064697
1498.398438	2927.643066
1496.615234	2918.626709
1494.830078	2974.053955
1493.044922	3001.445801
1491.259766	2998.019531
1489.474609	2967.994385
1487.687500	2992.569580
1485.902344	2996.143066
1484.115234	2904.574219
1482.328125	3027.063965
1480.539063	3048.807617
1478.751953	3039.780273
1476.962891	3001.399414
1475.175781	3083.232666
1473.386719	3103.547119
1471.595703	3136.426270
1469.806641	3026.819580
1468.015625	3040.149414
1466.226563	3061.850098
1464.435547	3142.169189
1462.642578	3126.157227
1460.851563	3154.801514
1459.060547	3122.052490
1457.267578	3139.526855
1455.474609	3106.793945
1453.681641	3171.664063
1451.886719	3106.878906
1450.093750	3131.307617
1448.298828	3101.388916
1446.503906	3107.699219
1444.708984	3186.425049
1442.914063	3121.702881
1441.117188	3165.589600
1439.322266	3198.323242
1437.525391	3111.374268
1435.728516	3194.187744
1433.931641	3200.465820
1432.132813	3222.037842
1430.333984	3214.403564
1428.537109	3165.071289
1426.736328	3200.532959
1424.937500	3190.127930
1423.138672	3193.618164
1421.337891	3160.996582
1419.537109	3181.153076
1417.736328	3219.347900
1415.935547	3196.456055
1414.134766	3267.934326
1412.332031	3196.483398
1410.529297	3270.704346
1408.726563	3279.715088
1406.923828	3269.310791
1405.121094	3270.000000
1403.316406	3315.036865
1401.511719	3342.041260
1399.707031	3333.016113
1397.902344	3300.449463
1396.097656	3380.057129
1394.291016	3285.195068
1392.484375	3344.009521
1390.677734	3409.717285
1388.871094	3426.973389
1387.064453	3354.312256
1385.255859	3372.954834
1383.447266	3424.772217
1381.638672	3331.421875
1379.830078	3369.404541
1378.021484	3353.482666
1376.210938	3333.422852
1374.402344	3371.379395
1372.591797	3417.604492
1370.779297	3371.312012
1368.968750	3432.698975
1367.158203	3412.641602
1365.345703	3435.361816
1363.533203	3426.346436
1361.720703	3442.157715
1359.906250	3440.037842
1358.093750	3544.061035
1356.279297	3479.901123
1354.464844	3499.819092
1352.650391	3548.657471
1350.833984	3458.368164
1349.019531	3474.145752
1347.203125	3476.149170
1345.386719	3474.021973
1343.570313	3537.947998
1341.753906	3526.177002
1339.935547	3508.908691
1338.117188	3531.528320
1336.298828	3631.132568
1334.480469	3492.885498
1332.662109	3496.252197
1330.841797	3529.845215
1329.021484	3498.858643
1327.201172	3414.321777
1325.380859	3449.282715
1323.560547	3448.534424
1321.738281	3497.197266
1319.917969	3445.665771
1318.095703	3453.149170
1316.271484	3474.345215
1314.449219	3440.678467
1312.625000	3427.591309
1310.802734	3459.743652
1308.978516	3375.394531
1307.152344	3400.692627
1305.328125	3405.431885
1303.501953	3351.278320
1301.675781	3451.872803
1299.849609	3386.780029
1298.023438	3313.503662
1296.197266	3349.726807
1294.369141	3336.683838
1292.541016	3307.232910
1290.712891	3358.474609
1288.884766	3329.031250
1287.056641	3396.647217
1285.226563	3324.844238
1283.396484	3341.879150
1281.566406	3313.829346
1279.736328	3318.567627
1277.904297	3312.380371
1276.074219	3248.862549
1274.242188	3312.295654
1272.410156	3259.720703
1270.576172	3317.666260
1268.744141	3270.567871
1266.910156	3234.398193
1265.076172	3266.407959
1263.242188	3223.439453
1261.408203	3245.897949
1259.572266	3239.736328
1257.736328	3225.404541
1255.900391	3226.058350
1254.064453	3169.529053
1252.228516	3197.417725
1250.390625	3185.828125
1248.554688	3125.262207
1246.716797	3200.750977
1244.876953	3170.127441
1243.039063	3153.113770
1241.199219	3214.951904
1239.361328	3215.603271
1237.521484	3148.314453
1235.679688	3188.375977
1233.839844	3084.450928
1231.998047	3102.781738
1230.158203	3080.376221
1228.314453	3180.136719
1226.472656	3205.218018
1224.630859	3155.669922
1222.787109	3205.160156
1220.943359	3109.525879
1219.099609	3210.523926
1217.255859	3192.193359
1215.410156	3214.526367
1213.566406	3169.104492
1211.720703	3112.865234
1209.873047	3135.199951
1208.027344	3126.382568
1206.181641	3108.092773
1204.333984	3039.734863
1202.486328	3106.717041
1200.638672	3138.496338
1198.789063	3167.556152
1196.941406	3112.766357
1195.091797	3116.132324
1193.242188	3068.135498
1191.392578	3012.051758
1189.541016	3095.145752
1187.689453	3072.847900
1185.839844	3085.669922
1183.988281	3084.985107
1182.134766	3078.900879
1180.283203	3117.352539
1178.429688	3050.549072
1176.576172	3044.475586
1174.722656	3010.083984
1172.869141	2975.707031
1171.013672	3089.625732
1169.158203	3055.245850
1167.302734	3037.049805
1165.447266	3028.291260
1163.591797	3027.616943
1161.734375	3014.824219
1159.876953	3120.502930
1158.019531	3017.519043
1156.162109	2964.367920
1154.304688	2946.218262
1152.445313	2976.496338
1150.585938	3026.931396
1148.726563	3058.521973
1146.867188	3006.763428
1145.005859	3020.874268
1143.144531	3069.909424
1141.283203	3023.554932
1139.421875	3075.252930
1137.560547	3014.148682
1135.697266	3076.563477
1133.835938	3024.879639
1131.972656	3022.861572
1130.107422	3015.478516
1128.244141	3012.121826
1126.378906	3028.878174
1124.513672	2961.175049
1122.648438	2971.233887
1120.783203	2985.307617
1118.916016	2991.336914
1117.050781	3017.452881
1115.183594	3058.285889
1113.316406	2987.987793
1111.447266	3022.116455
1109.580078	3024.114990
1107.710938	2941.830811
1105.841797	3054.858643
1103.972656	3015.394043
1102.101563	2958.567383
1100.232422	2995.328125
1098.361328	2993.319092
1096.490234	2956.574707
1094.617188	2959.917480
1092.746094	2985.960449
1090.873047	3001.310547
1089.000000	2964.595947
1087.126953	3031.989014
1085.253906	2984.609863
1083.378906	2999.945068
1081.503906	2980.599609
1079.628906	3017.261230
1077.753906	3001.918701
1075.878906	2959.928955
1074.001953	2989.907471
1072.125000	2990.565918
1070.248047	3007.205322
1068.371094	2994.543945
1066.492188	3012.505615
1064.613281	3015.818848
1062.734375	2975.220703
1060.855469	2977.209961
1058.976563	2932.648193
1057.095703	2904.062500
1055.214844	2963.229736
1053.333984	2990.471680
1051.453125	2884.821045
1049.570313	2860.256348
1047.689453	2927.348145
1045.806641	2930.670166
1043.923828	2924.697021
1042.039063	2841.743164
1040.156250	2880.910400
1038.271484	2921.386230
1036.386719	2923.377930
1034.501953	2941.281494
1032.615234	2944.593018
1030.728516	2905.486816
1028.843750	2880.975098
1026.955078	2937.292969
1025.068359	2854.502441
1023.181641	2898.881348
1021.292969	2924.704102
1019.404297	2926.688232
1017.515625	2882.352539
1015.625000	3032.531250
1013.736328	2908.823242
1011.845703	2865.843262
1009.955078	2907.502930
1008.062500	2847.357422
1006.171875	2902.217773
1004.279297	2861.919678
1002.386719	2846.738525
1000.494141	2927.974365
998.599609	2940.512695
996.707031	2921.362793
994.812500	2944.454590
992.917969	2893.644043
991.023438	2951.030029
989.126953	2900.240723
987.230469	2904.854736
985.333984	2913.421387
983.437500	2887.716064
981.541016	2864.657715
979.642578	2891.670166
977.744141	2869.937744
975.845703	2854.798828
973.947266	2829.134766
972.046875	2839.019043
970.148438	2851.530273
968.248047	2883.769531
966.347656	2827.869385
964.445313	2891.658203
962.544922	2822.634277
960.642578	2835.133545
958.740234	2856.825439
956.835938	2854.859131
954.933594	2818.742432
953.029297	2874.565430
951.125000	2788.570557
949.220703	2798.433594
947.316406	2782.046143
945.410156	2841.760986
943.503906	2799.136719
941.597656	2780.136719
939.691406	2797.855469
937.783203	2785.417725
935.876953	2746.775879
933.968750	2693.739258
932.058594	2719.319580
930.150391	2695.124023
928.240234	2762.588867
926.332031	2763.264404
924.419922	2745.617676
922.509766	2765.922119
920.599609	2676.337891
918.687500	2728.034912
916.775391	2672.494385
914.863281	2700.638672
912.949219	2735.304443
911.037109	2687.639160
909.123047	2711.840820
907.208984	2749.091064
905.292969	2701.454834
903.378906	2768.713379
901.462891	2766.771484
899.546875	2655.228760
897.630859	2655.922363
895.712891	2670.961182
893.796875	2710.766846
891.878906	2655.392334
889.960938	2675.633301
888.041016	2621.594727
886.123047	2648.346924
884.203125	2652.946045
882.283203	2587.230713
880.361328	2659.533691
878.441406	2640.699707
876.519531	2645.295166
874.597656	2590.048096
872.675781	2603.756592
870.753906	2613.557861
868.830078	2581.754883
866.906250	2601.953613
864.982422	2589.657959
863.058594	2540.993896
861.132813	2549.498047
859.207031	2568.385742
857.281250	2562.599121
855.355469	2558.113037
853.429688	2541.950195
851.501953	2499.849365
849.574219	2545.961670
847.646484	2529.812256
845.718750	2534.411865
843.789063	2476.797607
841.859375	2429.575928
839.929688	2473.059082
838.000000	2545.015625
836.068359	2430.476807
834.138672	2477.812256
832.207031	2557.482422
830.275391	2499.954346
828.341797	2479.969238
826.408203	2458.699463
824.476563	2509.851563
822.541016	2533.831299
820.607422	2520.317871
818.671875	2444.786377
816.738281	2481.682373
814.802734	2408.777588
812.865234	2423.712646
810.929688	2402.493408
808.992188	2441.945313
807.054688	2447.828857
805.117188	2430.488281
803.179688	2451.848389
801.240234	2555.724121
799.300781	2580.912354
797.361328	2646.042969
795.421875	2614.500732
793.480469	2608.738281
791.539063	2649.344727
789.597656	2691.219727
787.656250	2801.305176
785.712891	3007.868896
783.771484	3121.688721
781.828125	3208.439209
779.882813	3295.148926
777.939453	3254.517578
775.994141	3168.909912
774.048828	3128.326172
772.103516	2969.544678
770.158203	2762.019775
768.210938	2677.890381
766.263672	2553.994141
764.316406	2594.476563
762.369141	2561.782715
760.419922	2512.422852
758.472656	2492.591553
756.523438	2454.813232
754.572266	2478.600830
752.623047	2502.376953
750.671875	2526.141602
748.720703	2516.579590
746.769531	2537.767090
744.818359	2474.414551
742.865234	2408.530762
740.912109	2327.315674
738.958984	2404.839844
737.005859	2415.790771
735.050781	2479.185547
733.095703	2400.586914
731.140625	2423.038086
729.185547	2425.024902
727.228516	2437.234619
725.273438	2533.769775
723.316406	2611.097412
721.357422	2777.788574
719.400391	2897.157471
717.441406	3010.087158
715.482422	3014.482666
713.523438	2948.698975
711.564453	2857.433350
709.603516	2794.267578
707.642578	2722.206299
705.681641	2636.156250
703.720703	2625.338379
701.757813	2568.656494
699.794922	2569.323486
697.832031	2541.972168
695.869141	2498.081299
693.904297	2461.848633
691.939453	2471.447510
689.974609	2397.067627
688.009766	2343.075195
686.044922	2392.117920
684.078125	2375.022949
682.111328	2429.118652
680.144531	2384.064209
678.175781	2299.644775
676.208984	2291.478271
674.240234	2271.885986
672.269531	2263.729248
670.300781	2223.843262
668.330078	2189.052002
666.359375	2206.294189
664.388672	2105.565430
662.417969	2065.753662
660.445313	2081.744141
658.474609	2063.504150
656.500000	2078.219727
654.527344	2047.319580
652.552734	2034.166260
650.580078	2057.741699
648.605469	2023.069702
646.628906	2033.979126
644.654297	1989.205444
642.677734	1945.718018
640.701172	2043.908081
638.724609	2044.684937
636.746094	2032.819336
634.767578	1964.084106
632.789063	1972.460327
630.810547	1944.196899
628.832031	1956.362183
626.851563	1982.411011
624.871094	2034.956909
622.890625	1971.366333
620.908203	1988.559570
618.927734	2001.959839
616.945313	1957.339478
614.962891	1956.870728
612.978516	2005.564087
610.996094	1955.933105
609.011719	1983.183350
607.027344	2014.199219
605.041016	1998.603760
603.056641	2015.750854
601.070313	1997.644409
599.083984	2008.490723
597.095703	1963.972900
595.109375	2008.783447
593.121094	1980.634399
591.132813	1924.839355
589.142578	1952.028931
587.154297	1910.090088
585.164063	1895.810547
583.173828	1890.329834
581.181641	1941.359253
579.191406	1928.337036
577.199219	1871.391479
575.207031	1849.608154
573.214844	1866.725098
571.220703	1913.934814
569.226563	1893.410034
567.232422	1869.134033
565.238281	1871.188965
563.242188	1834.399414
561.248047	1846.482788
559.251953	1841.026489
557.253906	1793.001343
555.257813	1902.724976
553.259766	1870.976929
551.261719	1839.243896
549.263672	1857.561279
547.263672	1860.862671
545.263672	1842.907349
543.263672	1861.209717
541.263672	1808.271729
539.263672	1907.781860
537.261719	1894.827759
535.259766	1904.357300
533.255859	1886.415894
531.253906	1898.438599
529.250000	1811.875122
527.246094	1818.919189
525.242188	1830.948730
523.236328	1846.712769
521.232422	1827.563110
519.226563	1805.929932
517.218750	1871.528687
515.212891	1828.717529
513.205078	1874.351440
511.197266	1892.570313
509.189453	1918.248901
507.179688	1914.046509
505.169922	1930.997192
503.160156	1954.158813
501.150391	1954.924194
499.140625	1992.987427
497.128906	2007.414917
495.117188	1990.768188
493.105469	1967.917480
491.091797	2034.506470
489.078125	2010.413818
487.064453	1982.608154
485.050781	1998.256348
483.035156	1941.927246
481.021484	1911.676880
479.003906	1901.284912
476.988281	1946.694702
474.972656	1974.726929
472.955078	1973.001465
470.937500	2035.705322
468.917969	2004.235840
466.900391	2073.092529
464.880859	2005.723633
462.861328	2015.130981
460.839844	1982.458740
458.820313	2005.475586
456.798828	2033.428223
454.777344	2031.688965
452.753906	2021.296265
450.732422	2045.515381
448.708984	2020.295898
446.685547	2040.796387
444.660156	1981.008667
442.636719	1974.343872
440.611328	1892.381836
438.585938	1872.166260
436.558594	1859.363281
434.533203	1918.109985
432.505859	1870.771606
430.476563	1931.951416
428.449219	1896.958374
426.419922	1971.655640
424.390625	2025.371826
422.361328	1999.002197
420.332031	1993.578613
418.300781	2039.861694
416.269531	2038.122192
414.236328	2046.226563
412.205078	2150.277344
410.171875	2238.287598
408.138672	2613.961670
406.105469	4067.467773
404.070313	11630.367188
402.035156	24970.035156
400.000000	25318.757813
397.964844	15007.180664
395.927734	7954.107422
393.890625	4127.636230
391.853516	2790.332764
389.816406	2338.187744
387.777344	2107.029053
385.738281	2066.037109
383.699219	2027.516968
381.660156	1906.906128
379.619141	1957.884888
377.578125	2014.962158
375.537109	2200.592529
373.494141	2405.717285
371.451172	3102.776123
369.408203	6289.643066
367.365234	14873.574219
365.320313	23580.363281
363.277344	23505.929688
361.232422	18533.253906
359.185547	13195.231445
357.140625	9316.306641
355.093750	6792.768555
353.044922	5198.612793
350.998047	4225.472656
348.949219	3534.777100
346.900391	3028.691162
344.851563	2755.872559
342.802734	2529.538330
340.751953	2361.846436
338.701172	2264.942871
336.650391	2179.056396
334.597656	1976.246826
332.544922	1987.924072
330.492188	1909.479248
328.439453	1842.031250
326.384766	1795.308960
324.330078	1797.284180
322.275391	1773.710571
320.220703	1741.635132
318.164063	1679.177856
316.107422	1672.670044
314.050781	1667.380371
311.992188	1662.093140
309.933594	1687.174927
307.875000	1624.809814
305.816406	1623.178589
303.755859	1630.043945
301.697266	1622.344360
299.634766	1600.091187
297.574219	1589.977051
295.511719	1640.491943
293.449219	1670.373535
291.386719	1699.027588
289.324219	1756.743530
287.259766	1845.921509
285.195313	1880.561401
283.130859	1893.392090
281.064453	1894.112793
278.998047	1882.732910
276.931641	1850.794067
274.865234	1886.595215
272.796875	1915.123169
270.728516	1921.878906
268.660156	1846.458374
266.589844	1877.389404
264.519531	1891.395020
262.449219	1873.998535
260.378906	1886.789795
258.306641	1941.813354
256.234375	1924.416138
254.162109	1975.781738
252.089844	1959.589722
250.015625	1948.227905
247.941406	1895.892456
245.867188	1860.453247
243.791016	1851.534180
241.714844	1859.479980
239.638672	1851.769043
237.562500	1919.894531
235.484375	1866.442383
233.406250	1886.404907
231.328125	1968.899292
229.250000	1950.345581
227.169922	1924.588501
225.089844	1900.046265
223.007813	1947.605469
220.927734	1981.926392
218.845703	2011.425293
216.763672	1995.287842
214.679688	2112.382568
212.595703	2114.224609
210.511719	2192.838379
208.427734	2221.040771
206.341797	2189.280518
204.257813	2149.145996
202.169922	2088.660889
200.083984	1989.871338
197.996094	1960.598999
195.908203	1896.618408
193.820313	1869.779541
191.730469	1878.856201
189.640625	1860.410156
187.550781	1901.777832
185.460938	1913.228882
183.369141	1812.301025
181.277344	1764.012207
179.185547	1824.476685
177.091797	1812.044189
174.998047	1792.453003
172.904297	1740.637695
170.810547	1718.688110
168.714844	1687.203979
166.619141	1740.431763
164.523438	1726.846558
162.425781	1653.655396
160.328125	1643.675537
158.230469	1620.592896
156.132813	1589.183228
154.033203	1573.272705
151.933594	1552.607666
149.832031	1535.524292
147.732422	1524.399902
145.630859	1525.177856
143.529297	1516.440063
141.425781	1533.865601
139.322266	1554.847412
137.218750	1540.165405
135.115234	1472.027466
133.009766	1497.758789
130.904297	1479.540649
128.798828	1482.700073
126.693359	1478.736572
124.585938	1428.502686
122.478516	1447.092041
120.369141	1407.565674
118.259766	1443.932129
116.150391	1435.241943
114.041016	1402.859009
111.929688	1415.505371
109.820313	1384.328979
107.707031	1417.098511
105.595703	1346.880737
103.482422	1315.747559
101.369141	1360.336792
99.255859	1369.423828
97.140625	1322.939697
95.025391	1315.484375
92.910156	1378.928711
90.792969	1346.654419
88.675781	1313.216553
86.558594	1297.506104
84.441406	1228.690552
82.322266	1307.409180
80.203125	1271.658203
78.082031	1260.692383
75.962891	1262.701172
73.841797	1257.636475
71.718750	1220.759033
69.597656	1223.954224
67.474609	1200.060303
65.351563	1200.903931
63.226563	1264.129272
61.103516	1268.484009
58.976563	1228.133667
56.851563	1248.959717
54.724609	1193.352295
52.597656	1250.612793
50.470703	1229.111938
48.341797	1251.087769
46.214844	1216.679565
44.083984	1226.905151
41.955078	1231.255737
39.824219	1250.858032
37.693359	1238.775513
35.560547	1250.154541
33.429688	1258.009521
