#Wave		#Intensity
3199.433594	9186.600586
3198.002930	9169.122070
3196.572266	9149.825195
3195.141602	9051.914063
3193.709961	9264.970703
3192.278320	9235.186523
3190.846680	9116.362305
3189.415039	9022.025391
3187.982422	9170.336914
3186.549805	9053.339844
3185.117188	8906.729492
3183.683594	9211.965820
3182.250000	9159.557617
3180.816406	9026.960938
3179.382813	9169.861328
3177.948242	9063.459961
3176.513672	9143.560547
3175.079102	9045.916016
3173.643555	9143.406250
3172.208008	9185.126953
3170.772461	9249.466797
3169.335938	8897.707031
3167.900391	9160.499023
3166.463867	8944.631836
3165.026367	9132.496094
3163.588867	9179.383789
3162.151367	9057.554688
3160.713867	9227.894531
3159.276367	9199.980469
3157.837891	9236.387695
3156.399414	9072.935547
3154.959961	9060.704102
3153.520508	9178.758789
3152.081055	9171.720703
3150.641602	9166.420898
3149.202148	9098.625000
3147.761719	9239.140625
3146.320313	8957.907227
3144.879883	9096.658203
3143.438477	9113.927734
3141.997070	9070.487305
3140.555664	9002.789063
3139.113281	9000.995117
3137.670898	9151.730469
3136.228516	9151.638672
3134.785156	9123.826172
3133.341797	9187.832031
3131.898438	9075.159180
3130.455078	9111.443359
3129.010742	9021.334961
3127.566406	9078.385742
3126.122070	8915.636719
3124.676758	9093.796875
3123.231445	9166.366211
3121.786133	9052.121094
3120.339844	9116.022461
3118.894531	9032.951172
3117.448242	9143.498047
3116.000977	9196.972656
3114.553711	9063.828125
3113.106445	9191.575195
3111.659180	9210.465820
3110.211914	9229.348633
3108.763672	9222.327148
3107.315430	9113.471680
3105.866211	9106.475586
3104.416992	9194.375000
3102.967773	9114.914063
3101.518555	9106.195313
3100.068359	9194.041992
3098.618164	9204.273438
3097.167969	9128.319336
3095.717773	9129.942383
3094.266602	9083.322266
3092.815430	9078.062500
3091.363281	9138.250000
3089.911133	9119.205078
3088.458984	9239.614258
3087.006836	9320.385742
3085.553711	9039.742188
3084.101563	9036.214844
3082.647461	9139.339844
3081.194336	9213.186523
3079.740234	9113.333008
3078.286133	9171.681641
3076.832031	9242.038086
3075.376953	9288.307617
3073.921875	9109.483398
3072.466797	9193.550781
3071.010742	9085.230469
3069.554688	9133.209961
3068.098633	8988.892578
3066.641602	9117.541016
3065.185547	9101.989258
3063.727539	8981.783203
3062.270508	9110.354492
3060.812500	9144.547852
3059.354492	9089.562500
3057.896484	9007.168945
3056.438477	9123.631836
3054.979492	9017.273438
3053.520508	9118.266602
3052.060547	9148.988281
3050.601563	9186.546875
3049.140625	9133.338867
3047.679688	9152.053711
3046.220703	9093.738281
3044.759766	9054.269531
3043.296875	9093.517578
3041.835938	9066.038086
3040.375000	9045.409180
3038.912109	9021.369141
3037.449219	8905.022461
3035.988281	9086.123047
3034.523438	9067.213867
3033.060547	9065.396484
3031.597656	8916.676758
3030.132813	8978.080078
3028.669922	8802.116211
3027.205078	8959.116211
3025.740234	8996.577148
3024.275391	8986.241211
3022.810547	8926.431641
3021.343750	8999.696289
3019.878906	9013.240234
3018.412109	9006.317383
3016.945313	9038.606445
3015.478516	9026.567383
3014.011719	9055.429688
3012.544922	8978.649414
3011.076172	9010.916016
3009.609375	9131.727539
3008.140625	9049.868164
3006.671875	8981.660156
3005.203125	9081.979492
3003.734375	9003.581055
3002.265625	9042.606445
3000.794922	9061.203125
2999.324219	8998.160156
2997.855469	9043.962891
2996.384766	8909.549805
2994.914063	8926.457031
2993.441406	9018.125000
2991.970703	9002.722656
2990.498047	9019.599609
2989.027344	9138.365234
2987.554688	9122.946289
2986.082031	8907.217773
2984.609375	9056.483398
2983.134766	8963.031250
2981.662109	8945.960938
2980.187500	8978.087891
2978.712891	9040.727539
2977.240234	9010.086914
2975.763672	8967.590820
2974.289063	9016.634766
2972.814453	9031.767578
2971.337891	8950.325195
2969.863281	8912.955078
2968.386719	8738.426758
2966.910156	8767.146484
2965.433594	9034.541016
2963.955078	9059.803711
2962.478516	9019.062500
2961.000000	8961.419922
2959.523438	8898.724609
2958.044922	8988.254883
2956.566406	9043.932617
2955.085938	8854.475586
2953.607422	8852.694336
2952.128906	8943.848633
2950.648438	9058.618164
2949.167969	8974.031250
2947.687500	8921.563477
2946.207031	8860.673828
2944.726563	8929.788086
2943.244141	9005.625000
2941.763672	8887.383789
2940.281250	9005.373047
2938.798828	8812.963867
2937.316406	9035.473633
2935.833984	8819.531250
2934.351563	9067.234375
2932.867188	8861.482422
2931.382813	8901.822266
2929.900391	8868.020508
2928.416016	8982.452148
2926.931641	8876.235352
2925.445313	8813.835938
2923.960938	9049.405273
2922.474609	8988.677734
2920.990234	8981.818359
2919.503906	8936.268555
2918.017578	8944.558594
2916.531250	9105.871094
2915.042969	9038.465820
2913.556641	8930.746094
2912.068359	8871.804688
2910.580078	9039.720703
2909.091797	9011.019531
2907.603516	8970.572266
2906.115234	8975.479492
2904.626953	9066.007813
2903.136719	8936.609375
2901.646484	8921.380859
2900.156250	9026.964844
2898.666016	9005.012695
2897.175781	9050.157227
2895.685547	8999.702148
2894.193359	8976.090820
2892.703125	8997.746094
2891.210938	9037.826172
2889.718750	8937.146484
2888.226563	8988.947266
2886.734375	9020.629883
2885.240234	8946.804688
2883.748047	9003.593750
2882.253906	8974.994141
2880.759766	9006.651367
2879.265625	8937.907227
2877.771484	8971.230469
2876.277344	8877.432617
2874.781250	9052.884766
2873.285156	9030.994141
2871.791016	8997.412109
2870.294922	9002.278320
2868.798828	8983.750977
2867.300781	8936.833984
2865.804688	8955.068359
2864.306641	8931.551758
2862.810547	9054.953125
2861.312500	8852.832031
2859.814453	8862.723633
2858.314453	8952.694336
2856.816406	8819.106445
2855.318359	8922.389648
2853.818359	8860.559570
2852.318359	8860.434570
2850.818359	8831.974609
2849.318359	8993.494141
2847.818359	8911.704102
2846.316406	8846.604492
2844.816406	8926.417969
2843.314453	8982.887695
2841.812500	8866.205078
2840.310547	8857.753906
2838.808594	8977.434570
2837.304688	8927.371094
2835.802734	9050.315430
2834.298828	8986.951172
2832.794922	8978.481445
2831.291016	8830.376953
2829.787109	8868.477539
2828.283203	8954.750000
2826.777344	8961.243164
2825.273438	8778.378906
2823.767578	8846.348633
2822.261719	8930.894531
2820.755859	8709.965820
2819.250000	8900.721680
2817.742188	8807.655273
2816.236328	8941.907227
2814.728516	8741.057617
2813.220703	8958.183594
2811.712891	9007.764648
2810.205078	8879.958984
2808.697266	8780.377930
2807.187500	8879.672852
2805.677734	8907.691406
2804.169922	8755.163086
2802.660156	8779.882813
2801.150391	8827.771484
2799.638672	8860.742188
2798.128906	8858.945313
2796.617188	8860.457031
2795.105469	8809.031250
2793.595703	8812.206055
2792.083984	8871.602539
2790.570313	8772.258789
2789.058594	8829.984375
2787.544922	8790.183594
2786.033203	8733.874023
2784.519531	8776.704102
2783.005859	8968.159180
2781.492188	8778.094727
2779.976563	8728.436523
2778.462891	8883.470703
2776.947266	8759.547852
2775.431641	8906.261719
2773.916016	8812.076172
2772.400391	8719.578125
2770.884766	8943.708984
2769.369141	8805.059570
2767.851563	8799.974609
2766.333984	8663.058594
2764.816406	8949.624023
2763.298828	8796.259766
2761.781250	8758.240234
2760.263672	8744.934570
2758.744141	8841.931641
2757.226563	8889.511719
2755.707031	8803.781250
2754.187500	8785.539063
2752.667969	8754.144531
2751.146484	8696.450195
2749.626953	8716.056641
2748.105469	8712.640625
2746.583984	8786.472656
2745.062500	8797.832031
2743.541016	8720.468750
2742.019531	8878.023438
2740.498047	8697.214844
2738.974609	8756.196289
2737.451172	8665.770508
2735.927734	8813.358398
2734.404297	8765.620117
2732.880859	8801.569336
2731.357422	8798.137695
2729.832031	8786.507813
2728.306641	8817.510742
2726.783203	8722.280273
2725.255859	8659.866211
2723.730469	8810.488281
2722.205078	8653.063477
2720.677734	8723.368164
2719.152344	8700.303711
2717.625000	8785.304688
2716.097656	8726.224609
2714.570313	8564.065430
2713.042969	8675.219727
2711.513672	8743.794922
2709.986328	8815.613281
2708.457031	8746.773438
2706.927734	8709.023438
2705.398438	8731.767578
2703.869141	8653.179688
2702.337891	8651.416016
2700.808594	8690.491211
2699.277344	8778.546875
2697.746094	8706.542969
2696.214844	8675.381836
2694.683594	8600.163086
2693.150391	8575.563477
2691.619141	8653.760742
2690.085938	8611.215820
2688.552734	8754.608398
2687.019531	8609.333984
2685.486328	8612.467773
2683.953125	8579.743164
2682.417969	8701.838867
2680.884766	8747.311523
2679.349609	8566.347656
2677.814453	8561.342773
2676.279297	8709.392578
2674.742188	8637.615234
2673.207031	8666.776367
2671.669922	8616.189453
2670.134766	8633.954102
2668.597656	8563.875000
2667.060547	8524.723633
2665.521484	8617.285156
2663.984375	8563.506836
2662.445313	8776.289063
2660.908203	8444.640625
2659.369141	8537.141602
2657.830078	8517.530273
2656.289063	8564.507813
2654.750000	8604.971680
2653.208984	8609.706055
2651.669922	8612.815430
2650.128906	8593.207031
2648.587891	8625.517578
2647.046875	8503.732422
2645.503906	8681.991211
2643.962891	8641.306641
2642.419922	8579.565430
2640.876953	8613.463867
2639.333984	8623.044922
2637.791016	8616.421875
2636.248047	8562.832031
2634.703125	8530.315430
2633.160156	8645.133789
2631.615234	8560.816406
2630.070313	8413.420898
2628.525391	8490.978516
2626.978516	8537.769531
2625.433594	8616.886719
2623.886719	8511.638672
2622.341797	8513.129883
2620.794922	8597.050781
2619.248047	8732.648438
2617.699219	8535.369141
2616.152344	8370.477539
2614.603516	8504.420898
2613.056641	8492.992188
2611.507813	8584.882813
2609.958984	8491.127930
2608.408203	8591.048828
2606.859375	8531.209961
2605.308594	8479.459961
2603.759766	8511.588867
2602.208984	8550.153320
2600.658203	8541.953125
2599.107422	8673.971680
2597.554688	8549.732422
2596.003906	8512.539063
2594.451172	8515.625977
2592.898438	8480.063477
2591.345703	8591.026367
2589.792969	8565.120117
2588.240234	8527.958008
2586.685547	8548.736328
2585.130859	8466.548828
2583.576172	8577.398438
2582.021484	8561.166992
2580.466797	8511.179688
2578.912109	8631.594727
2577.357422	8506.082031
2575.800781	8570.212891
2574.244141	8467.251953
2572.687500	8431.788086
2571.130859	8446.115234
2569.574219	8551.943359
2568.015625	8585.500000
2566.457031	8399.193359
2564.900391	8480.898438
2563.341797	8511.239258
2561.783203	8504.680664
2560.222656	8544.624023
2558.664063	8432.255859
2557.103516	8449.757813
2555.542969	8630.700195
2553.982422	8436.674805
2552.421875	8470.181641
2550.861328	8481.252930
2549.300781	8509.932617
2547.738281	8569.014648
2546.175781	8463.223633
2544.613281	8479.086914
2543.050781	8357.359375
2541.488281	8450.010742
2539.925781	8429.084961
2538.361328	8396.974609
2536.796875	8366.475586
2535.232422	8497.403320
2533.667969	8442.927734
2532.103516	8420.424805
2530.537109	8342.029297
2528.972656	8337.120117
2527.406250	8402.459961
2525.839844	8515.657227
2524.273438	8365.491211
2522.707031	8465.883789
2521.140625	8424.262695
2519.572266	8409.770508
2518.003906	8321.934570
2516.435547	8457.325195
2514.867188	8420.519531
2513.298828	8503.245117
2511.730469	8280.036133
2510.160156	8357.976563
2508.589844	8300.516602
2507.019531	8394.342773
2505.449219	8333.713867
2503.878906	8320.856445
2502.308594	8255.492188
2500.736328	8333.339844
2499.164063	8252.092773
2497.593750	8291.741211
2496.021484	8275.723633
2494.447266	8188.178711
2492.875000	8426.476563
2491.300781	8310.333984
2489.728516	8435.713867
2488.154297	8136.959961
2486.580078	8303.610352
2485.005859	8309.837891
2483.429688	8343.045898
2481.855469	8442.895508
2480.279297	8157.138672
2478.703125	8360.096680
2477.126953	8356.787109
2475.550781	8285.293945
2473.972656	8275.658203
2472.396484	8275.537109
2470.818359	8164.484375
2469.240234	8275.292969
2467.662109	8191.214355
2466.083984	8320.974609
2464.505859	8300.257813
2462.925781	8108.574707
2461.345703	8206.615234
2459.765625	8361.583008
2458.185547	8239.617188
2456.605469	8203.117188
2455.025391	8203.005859
2453.443359	8149.135742
2451.863281	8224.913086
2450.281250	8265.887695
2448.699219	8210.456055
2447.115234	8177.164063
2445.533203	8173.895996
2443.949219	8221.162109
2442.367188	8251.041016
2440.783203	8168.832520
2439.199219	8219.225586
2437.615234	8204.905273
2436.029297	8196.899414
2434.445313	8173.125000
2432.859375	8135.167969
2431.273438	8207.584961
2429.687500	8264.209961
2428.101563	8260.925781
2426.513672	8290.729492
2424.927734	8207.102539
2423.339844	8323.526367
2421.751953	8150.172852
2420.164063	8153.210449
2418.576172	8025.608398
2416.986328	8204.916016
2415.398438	8211.085938
2413.808594	8286.463867
2412.218750	8218.698242
2410.628906	8158.821777
2409.039063	8314.333984
2407.447266	8207.311523
2405.857422	8213.470703
2404.265625	8224.338867
2402.673828	8202.217773
2401.082031	8158.120117
2399.490234	8231.793945
2397.896484	8288.169922
2396.304688	8120.097656
2394.710938	8237.666016
2393.117188	8218.705078
2391.523438	8119.760254
2389.929688	8243.527344
2388.333984	8183.812012
2386.740234	8351.402344
2385.144531	8258.779297
2383.548828	8170.894043
2381.953125	8189.565430
2380.357422	8115.825684
2378.759766	8162.684570
2377.162109	8272.144531
2375.566406	8225.040039
2373.968750	8109.100586
2372.371094	8118.371582
2370.771484	8205.848633
2369.173828	8204.147461
2367.574219	8086.743164
2365.974609	8147.596191
2364.375000	8105.270996
2362.775391	8106.715820
2361.175781	7956.619141
2359.574219	8136.154297
2357.974609	8242.218750
2356.373047	8081.256836
2354.771484	8079.580078
2353.169922	8068.540039
2351.566406	8135.520508
2349.964844	8205.591797
2348.361328	8110.309082
2346.757813	8117.981934
2345.154297	8164.626953
2343.550781	8109.936035
2341.947266	8055.268066
2340.341797	8023.992676
2338.736328	8159.407227
2337.132813	8061.153809
2335.527344	8001.867676
2333.919922	8070.260254
2332.314453	8028.116699
2330.707031	8178.948730
2329.101563	8021.670410
2327.494141	8093.111328
2325.886719	8187.849121
2324.277344	8173.708984
2322.669922	8125.375977
2321.060547	8053.749512
2319.453125	8080.044922
2317.843750	8128.078613
2316.234375	8120.176270
2314.623047	8099.854004
2313.013672	8138.536621
2311.402344	8079.411621
2309.792969	8069.972168
2308.181641	8077.604004
2306.568359	8204.679688
2304.957031	8111.467285
2303.345703	8089.622070
2301.732422	8108.093262
2300.119141	8041.307617
2298.505859	8086.124512
2296.892578	8222.333008
2295.279297	8189.642090
2293.664063	8203.424805
2292.050781	8231.136719
2290.435547	8217.039063
2288.820313	8247.831055
2287.205078	8060.425781
2285.587891	8165.496582
2283.972656	8156.062988
2282.355469	8146.632324
2280.738281	8194.412109
2279.121094	8194.250977
2277.503906	7960.724121
2275.884766	8138.303223
2274.267578	8201.491211
2272.648438	8117.923828
2271.029297	8188.809082
2269.410156	8188.646973
2267.791016	8213.180664
2266.169922	7947.579102
2264.550781	8100.212402
2262.929688	8064.587891
2261.308594	8136.935059
2259.687500	8124.445313
2258.066406	8096.544434
2256.443359	8065.571777
2254.820313	8167.135254
2253.199219	8099.184570
2251.576172	8200.697266
2249.951172	8098.886719
2248.328125	8177.261230
2246.705078	7978.517090
2245.080078	8166.154785
2243.455078	8136.754395
2241.830078	8151.979004
2240.205078	8093.369141
2238.578125	8073.227539
2236.953125	8040.793945
2235.326172	8049.875488
2233.699219	8002.091797
2232.072266	8086.463867
2230.445313	8115.499023
2228.818359	8017.047363
2227.189453	8067.580566
2225.560547	8096.600098
2223.931641	8205.419922
2222.302734	8031.836914
2220.673828	8188.185059
2219.042969	8053.024414
2217.414063	8170.962402
2215.783203	8051.193359
2214.152344	8054.110352
2212.521484	8041.699219
2210.888672	7915.901855
2209.257813	7980.123047
2207.625000	7992.240234
2205.992188	8033.447266
2204.359375	8019.520020
2202.726563	8166.322266
2201.093750	8040.653809
2199.458984	8042.032715
2197.824219	8159.671387
2196.189453	8104.435059
2194.554688	8047.692383
2192.919922	8127.035156
2191.285156	7958.731934
2189.648438	7926.504395
2188.011719	7972.208984
2186.375000	7953.738281
2184.738281	8039.124023
2183.101563	8005.377441
2181.462891	8043.392578
2179.826172	8151.597656
2178.187500	7988.145020
2176.548828	8003.254395
2174.910156	8167.833496
2173.269531	8085.301270
2171.630859	8016.524414
2169.990234	7969.116699
2168.349609	8066.507324
2166.708984	8064.817871
2165.068359	7964.110840
2163.425781	7935.027832
2161.785156	7976.001953
2160.142578	8007.823730
2158.500000	8089.860352
2156.857422	8112.513672
2155.214844	8042.348633
2153.570313	8001.114258
2151.925781	8076.998535
2150.283203	8061.621094
2148.638672	7991.523926
2146.992188	7957.931641
2145.347656	7893.962402
2143.701172	7942.441406
2142.056641	8019.758301
2140.410156	8030.225098
2138.763672	7993.621094
2137.115234	7961.585938
2135.468750	8082.843262
2133.820313	8018.938477
2132.173828	7982.365234
2130.525391	8085.340820
2128.876953	7982.048828
2127.226563	7943.989258
2125.578125	8049.937500
2123.927734	8031.578613
2122.277344	7964.745117
2120.626953	8096.371582
2118.976563	7925.054688
2117.326172	8080.859375
2115.673828	8154.853027
2114.021484	8142.546387
2112.369141	7988.006348
2110.716797	8019.611816
2109.064453	8001.289551
2107.412109	8153.854492
2105.757813	7976.761719
2104.103516	8055.199707
2102.449219	8032.349609
2100.794922	8044.260254
2099.140625	8039.548828
2097.484375	8054.472656
2095.830078	8070.899414
2094.173828	7992.209961
2092.517578	8099.203613
2090.861328	7972.250488
2089.203125	8061.097656
2087.546875	8017.167480
2085.888672	7887.294434
2084.230469	8158.541992
2082.572266	8107.080566
2080.912109	8030.018555
2079.253906	8096.136230
2077.593750	8120.043457
2075.933594	8119.841309
2074.273438	8030.792969
2072.613281	7977.914063
2070.953125	8158.368652
2069.291016	8105.484863
2067.630859	8165.467285
2065.968750	8094.551758
2064.306641	7966.514160
2062.642578	8056.560059
2060.980469	8012.770508
2059.316406	8177.917969
2057.654297	8066.499023
2055.990234	7940.102539
2054.324219	8073.616211
2052.660156	8016.351074
2050.996094	8025.172363
2049.330078	8030.987305
2047.664063	8107.336914
2045.998047	8042.608398
2044.332031	8033.413086
2042.664063	8018.221191
2040.998047	8039.024414
2039.330078	8052.322266
2037.662109	8001.161133
2035.994141	7982.990234
2034.324219	8141.622559
2032.656250	8003.591797
2030.986328	7977.941895
2029.316406	8094.548340
2027.646484	8122.781738
2025.976563	8189.916504
2024.306641	8179.210449
2022.634766	8071.264648
2020.962891	8065.074707
2019.292969	8081.318359
2017.619141	8028.779297
2015.947266	7986.725586
2014.275391	8074.709473
2012.601563	8074.499023
2010.927734	8154.957031
2009.253906	8100.961914
2007.580078	8069.387207
2005.904297	8194.581055
2004.230469	8200.313477
2002.554688	8167.244141
2000.878906	8202.818359
1999.203125	8235.394531
1997.527344	8172.510254
1995.849609	8188.676270
1994.173828	8112.411133
1992.496094	8074.927734
1990.818359	8269.912109
1989.140625	8230.919922
1987.460938	8211.307617
1985.783203	8155.963867
1984.103516	8265.901367
1982.423828	8174.843750
1980.744141	8216.273438
1979.064453	8155.021484
1977.382813	8130.983887
1975.703125	8101.007324
1974.021484	8108.215820
1972.339844	8055.956055
1970.656250	8115.190918
1968.974609	8207.090820
1967.292969	8189.012695
1965.609375	8120.439453
1963.925781	8203.369141
1962.242188	8155.606934
1960.556641	8119.739258
1958.873047	8192.226563
1957.187500	8243.908203
1955.501953	8222.878906
1953.816406	8231.520508
1952.130859	8309.851563
1950.445313	8231.000977
1948.757813	8229.257813
1947.072266	8217.141602
1945.384766	8185.770020
1943.695313	8189.961914
1942.007813	8222.289063
1940.320313	8287.176758
1938.630859	8058.930664
1936.941406	8227.425781
1935.251953	8187.209961
1933.562500	8117.423340
1931.871094	8231.071289
1930.181641	8306.222656
1928.490234	8285.242188
1926.798828	8197.753906
1925.107422	8250.696289
1923.416016	8302.137695
1921.722656	8300.376953
1920.031250	8297.140625
1918.337891	8239.271484
1916.644531	8286.240234
1914.949219	8263.820313
1913.255859	8241.408203
1911.560547	8146.715332
1909.867188	8338.212891
1908.171875	8317.272461
1906.474609	8297.815430
1904.779297	8357.965820
1903.083984	8273.662109
1901.386719	8352.945313
1899.689453	8296.666992
1897.992188	8294.905273
1896.294922	8229.827148
1894.595703	8272.246094
1892.896484	8342.611328
1891.199219	8227.529297
1889.500000	8334.655273
1887.798828	8279.931641
1886.099609	8347.291992
1884.400391	8374.925781
1882.699219	8426.066406
1880.998047	8315.519531
1879.296875	8351.957031
1877.593750	8335.491211
1875.892578	8405.689453
1874.189453	8389.218750
1872.486328	8393.307617
1870.783203	8363.635742
1869.080078	8355.987305
1867.376953	8370.350586
1865.671875	8443.381836
1863.966797	8289.063477
1862.261719	8372.343750
1860.556641	8575.795898
1858.851563	8464.049805
1857.144531	8315.716797
1855.439453	8356.433594
1853.732422	8502.590820
1852.025391	8475.886719
1850.316406	8396.487305
1848.609375	8514.729492
1846.900391	8599.261719
1845.191406	8455.506836
1843.482422	8463.947266
1841.773438	8555.746094
1840.064453	8455.957031
1838.353516	8610.580078
1836.644531	8636.516602
1834.933594	8535.311523
1833.220703	8507.196289
1831.509766	8498.081055
1829.798828	8640.845703
1828.085938	8568.923828
1826.373047	8602.130859
1824.660156	8571.110352
1822.947266	8535.725586
1821.232422	8592.257813
1819.519531	8612.303711
1817.804688	8506.939453
1816.089844	8575.102539
1814.375000	8640.322266
1812.658203	8639.937500
1810.943359	8683.260742
1809.226563	8704.714844
1807.509766	8749.460938
1805.792969	8609.275391
1804.076172	8664.210938
1802.357422	8596.872070
1800.638672	8583.397461
1798.919922	8785.231445
1797.201172	8699.000000
1795.482422	8729.134766
1793.763672	8629.867188
1792.042969	8604.769531
1790.322266	8633.450195
1788.601563	8665.024414
1786.880859	8668.984375
1785.160156	8699.083984
1783.437500	8756.757813
1781.714844	8744.726563
1779.992188	8860.417969
1778.269531	8797.583008
1776.546875	8840.676758
1774.822266	8801.077148
1773.099609	8729.592773
1771.375000	8710.331055
1769.650391	8751.955078
1767.925781	8638.499023
1766.199219	8730.829102
1764.472656	8694.198242
1762.748047	8879.163086
1761.021484	9023.506836
1759.292969	8750.873047
1757.566406	8903.865234
1755.837891	8763.049805
1754.111328	8842.190430
1752.382813	8769.427734
1750.654297	8906.375977
1748.923828	8891.458984
1747.195313	8862.093750
1745.464844	8796.612305
1743.734375	8774.502930
1742.003906	8837.629883
1740.273438	8952.720703
1738.541016	8854.063477
1736.808594	8922.905273
1735.078125	8770.893555
1733.345703	8829.622070
1731.611328	8847.929688
1729.878906	8916.711914
1728.144531	8842.700195
1726.410156	8910.010742
1724.675781	9011.887695
1722.941406	8903.314453
1721.207031	9009.469727
1719.470703	8970.086914
1717.736328	8943.681641
1716.000000	8887.049805
1714.261719	8921.135742
1712.525391	8960.963867
1710.789063	9062.650391
1709.050781	8991.652344
1707.312500	8899.109375
1705.574219	8946.095703
1703.835938	8951.367188
1702.095703	8946.574219
1700.355469	9043.817383
1698.617188	9050.500000
1696.876953	8993.972656
1695.134766	9096.886719
1693.394531	9109.294922
1691.652344	9038.433594
1689.910156	9136.963867
1688.167969	9146.484375
1686.425781	9127.306641
1684.683594	9133.954102
1682.939453	9164.977539
1681.195313	9164.445313
1679.453125	9036.336914
1677.707031	9101.754883
1675.962891	9164.277344
1674.216797	9192.393555
1672.472656	9157.479492
1670.726563	9119.716797
1668.980469	9252.328125
1667.232422	9246.046875
1665.486328	9205.425781
1663.738281	9239.215820
1661.990234	9305.888672
1660.242188	9296.739258
1658.494141	9380.527344
1656.746094	9354.210938
1654.996094	9373.638672
1653.246094	9373.053711
1651.496094	9326.755859
1649.746094	9317.610352
1647.994141	9409.849609
1646.244141	9542.020508
1644.492188	9591.351563
1642.740234	9607.840820
1640.988281	9678.535156
1639.234375	9619.399414
1637.482422	9702.894531
1635.728516	9732.174805
1633.974609	9587.537109
1632.220703	9722.288086
1630.466797	9657.504883
1628.710938	9559.984375
1626.955078	9717.439453
1625.199219	9795.087891
1623.443359	9785.862305
1621.687500	9701.205078
1619.929688	9963.793945
1618.173828	9937.463867
1616.416016	9878.429688
1614.658203	9926.076172
1612.898438	10151.421875
1611.140625	9971.553711
1609.380859	10063.203125
1607.621094	10058.194336
1605.861328	10105.747070
1604.101563	10202.987305
1602.341797	10162.451172
1600.580078	10410.116211
1598.818359	10439.098633
1597.056641	10242.444336
1595.294922	10258.680664
1593.531250	10296.185547
1591.769531	10472.646484
1590.005859	10494.492188
1588.242188	10512.075195
1586.478516	10616.097656
1584.712891	10741.327148
1582.949219	10590.271484
1581.183594	10631.892578
1579.417969	10628.183594
1577.652344	10777.366211
1575.884766	10858.547852
1574.119141	10942.523438
1572.351563	10858.108398
1570.583984	10950.532227
1568.816406	11083.925781
1567.048828	11020.740234
1565.279297	10910.934570
1563.509766	11031.529297
1561.740234	11145.006836
1559.970703	11173.678711
1558.201172	11319.557617
1556.429688	11263.458008
1554.660156	11389.490234
1552.888672	11418.081055
1551.117188	11438.192383
1549.343750	11413.150391
1547.572266	11508.007813
1545.798828	11576.030273
1544.025391	11610.185547
1542.251953	11757.089844
1540.478516	11764.415039
1538.703125	11926.719727
1536.929688	11912.873047
1535.154297	11899.032227
1533.378906	11906.316406
1531.603516	12062.816406
1529.826172	12108.060547
1528.048828	12084.336914
1526.273438	12161.912109
1524.496094	12308.373047
1522.716797	12323.992188
1520.939453	12272.120117
1519.160156	12467.655273
1517.380859	12566.139648
1515.601563	12657.555664
1513.822266	12494.682617
1512.042969	12581.860352
1510.261719	12566.500977
1508.480469	12721.004883
1506.699219	12698.602539
1504.917969	13085.934570
1503.136719	12900.730469
1501.353516	12948.429688
1499.570313	12980.682617
1497.787109	12955.441406
1496.003906	12979.267578
1494.218750	13143.216797
1492.435547	13075.922852
1490.650391	13155.734375
1488.865234	13397.960938
1487.080078	13302.649414
1485.292969	13285.769531
1483.507813	13275.893555
1481.720703	13450.717773
1479.933594	13520.546875
1478.146484	13519.015625
1476.359375	13573.416016
1474.570313	13443.255859
1472.781250	13609.463867
1470.992188	13592.539063
1469.203125	13817.319336
1467.414063	13627.152344
1465.623047	13691.229492
1463.832031	13776.220703
1462.041016	13660.165039
1460.250000	13813.507813
1458.458984	13897.019531
1456.666016	13758.691406
1454.873047	13751.521484
1453.080078	13933.990234
1451.287109	13926.784180
1449.494141	13739.784180
1447.699219	13832.951172
1445.904297	13889.854492
1444.109375	13966.232422
1442.314453	13733.427734
1440.519531	13911.439453
1438.722656	13930.690430
1436.927734	13908.182617
1435.130859	13920.466797
1433.332031	13975.867188
1431.535156	13892.167969
1429.738281	13998.995117
1427.939453	14050.169922
1426.140625	14054.066406
1424.341797	14184.408203
1422.541016	14109.084961
1420.742188	14125.463867
1418.941406	14190.437500
1417.140625	14167.916016
1415.339844	14124.583008
1413.537109	14190.898438
1411.736328	14228.048828
1409.933594	14267.956055
1408.130859	14339.741211
1406.328125	14222.927734
1404.525391	14416.677734
1402.720703	14367.806641
1400.916016	14386.850586
1399.111328	14469.610352
1397.306641	14502.472656
1395.501953	14431.465820
1393.695313	14472.625977
1391.888672	14468.092773
1390.082031	14561.809570
1388.275391	14496.382813
1386.468750	14540.255859
1384.660156	14597.937500
1382.851563	14474.472656
1381.042969	14725.665039
1379.234375	14774.973633
1377.425781	14716.488281
1375.615234	14641.450195
1373.804688	14852.331055
1371.994141	14708.253906
1370.183594	14801.684570
1368.373047	14758.433594
1366.560547	14931.844727
1364.748047	14840.295898
1362.935547	14831.544922
1361.123047	14833.828125
1359.310547	14862.304688
1357.496094	14914.200195
1355.681641	14970.206055
1353.867188	14829.163086
1352.052734	14868.631836
1350.238281	14937.002930
1348.421875	14805.694336
1346.605469	14922.228516
1344.789063	14894.200195
1342.972656	14710.696289
1341.154297	14766.641602
1339.337891	14792.302734
1337.519531	14813.826172
1335.701172	14761.100586
1333.882813	14833.475586
1332.062500	14824.741211
1330.242188	14637.404297
1328.423828	14794.918945
1326.603516	14754.609375
1324.781250	14879.076172
1322.960938	14716.594727
1321.138672	14712.008789
1319.316406	14689.585938
1317.494141	14749.479492
1315.671875	14814.832031
1313.847656	14759.490234
1312.025391	14667.158203
1310.201172	14554.305664
1308.376953	14586.752930
1306.550781	14563.014648
1304.726563	14424.232422
1302.900391	14499.134766
1301.074219	14464.476563
1299.248047	14547.547852
1297.421875	14480.047852
1295.593750	14558.973633
1293.765625	14362.916016
1291.937500	14321.482422
1290.109375	14404.489258
1288.281250	14361.696289
1286.451172	14307.986328
1284.623047	14449.694336
1282.792969	14319.485352
1280.960938	14201.624023
1279.130859	14210.806641
1277.300781	14321.007813
1275.468750	14304.224609
1273.636719	14327.020508
1271.804688	14179.267578
1269.970703	14196.623047
1268.138672	14137.602539
1266.304688	14213.584961
1264.470703	13963.749023
1262.634766	13947.062500
1260.800781	13969.895508
1258.964844	14036.308594
1257.130859	14195.301758
1255.292969	14069.645508
1253.457031	13807.911133
1251.621094	14004.956055
1249.783203	13849.485352
1247.945313	13801.555664
1246.107422	13897.820313
1244.269531	13845.819336
1242.429688	13905.323242
1240.591797	13789.458008
1238.751953	13967.172852
1236.912109	13864.929688
1235.070313	13886.338867
1233.230469	13803.167969
1231.388672	13908.760742
1229.546875	13825.620117
1227.705078	13734.372070
1225.863281	13730.001953
1224.019531	13807.025391
1222.175781	13751.101563
1220.332031	13712.829102
1218.488281	13670.504883
1216.644531	13611.933594
1214.798828	13711.930664
1212.953125	13641.181641
1211.107422	13624.642578
1209.261719	13559.358398
1207.416016	13712.077148
1205.568359	13458.652344
1203.720703	13524.713867
1201.873047	13535.273438
1200.025391	13620.224609
1198.175781	13442.773438
1196.328125	13522.297852
1194.478516	13524.733398
1192.628906	13601.500000
1190.777344	13526.896484
1188.927734	13395.586914
1187.076172	13410.200195
1185.224609	13551.735352
1183.373047	13459.655273
1181.521484	13337.919922
1179.667969	13313.396484
1177.814453	13325.309570
1175.960938	13299.448242
1174.107422	13343.721680
1172.253906	13347.527344
1170.398438	13259.670898
1168.542969	13533.019531
1166.687500	13384.529297
1164.832031	13370.806641
1162.976563	13386.718750
1161.119141	13064.662109
1159.261719	13174.864258
1157.404297	13330.775391
1155.546875	13178.482422
1153.687500	13193.069336
1151.830078	13117.536133
1149.970703	13159.021484
1148.111328	13079.494141
1146.250000	13094.085938
1144.390625	13154.359375
1142.529297	13218.636719
1140.667969	13127.073242
1138.806641	13120.152344
1136.945313	13079.667969
1135.082031	12980.139648
1133.218750	13126.242188
1131.355469	13065.655273
1129.492188	12905.828125
1127.628906	13069.283203
1125.763672	13031.540039
1123.898438	13215.000977
1122.033203	12988.266602
1120.167969	13013.541016
1118.300781	13105.786133
1116.435547	13073.429688
1114.568359	13023.678711
1112.701172	12968.593750
1110.832031	13008.562500
1108.964844	13214.447266
1107.095703	13132.596680
1105.226563	12926.385742
1103.357422	12934.231445
1101.488281	12896.614258
1099.617188	12941.887695
1097.746094	13032.579102
1095.875000	12932.166016
1094.003906	12837.138672
1092.132813	12847.659180
1090.259766	12839.481445
1088.386719	12908.731445
1086.513672	12807.117188
1084.640625	12885.681641
1082.765625	12878.833008
1080.892578	12818.635742
1079.017578	12831.804688
1077.140625	12935.622070
1075.265625	12720.837891
1073.390625	12899.254883
1071.513672	12817.799805
1069.636719	12792.322266
1067.759766	12782.834961
1065.880859	12825.276367
1064.003906	12662.708008
1062.125000	12679.870117
1060.246094	12705.005859
1058.367188	12566.514648
1056.486328	12519.846680
1054.605469	12527.713867
1052.724609	12619.324219
1050.843750	12520.841797
1048.962891	12524.714844
1047.082031	12444.892578
1045.199219	12613.469727
1043.316406	12442.040039
1041.433594	12521.593750
1039.548828	12538.731445
1037.666016	12474.914063
1035.781250	12530.525391
1033.896484	12466.736328
1032.011719	12388.387695
1030.125000	12401.553711
1028.238281	12519.427734
1026.353516	12313.896484
1024.464844	12271.419922
1022.578125	12382.619141
1020.691406	12497.740234
1018.802734	12304.308594
1016.914063	12371.740234
1015.025391	12355.763672
1013.134766	12442.999023
1011.246094	12282.819336
1009.355469	12305.225586
1007.464844	12291.917969
1005.574219	12220.449219
1003.681641	12182.052734
1001.791016	12253.349609
999.898438	12221.567383
998.005859	12213.572266
996.111328	12226.708984
994.218750	12155.343750
992.324219	12091.929688
990.429688	12090.565430
988.535156	12135.378906
986.640625	12082.561523
984.744141	12106.253906
982.847656	12158.942383
980.951172	11965.106445
979.054688	12127.185547
977.156250	12028.308594
975.259766	12023.002930
973.361328	11965.017578
971.462891	12120.366211
969.562500	12038.687500
967.664063	12028.116211
965.763672	11901.754883
963.863281	12059.607422
961.962891	11880.683594
960.060547	11849.113281
958.160156	11939.821289
956.257813	11820.187500
954.355469	11847.784180
952.453125	11829.383789
950.548828	11812.305664
948.644531	11783.414063
946.740234	11792.610352
944.835938	11729.606445
942.931641	11568.205078
941.025391	11608.929688
939.121094	11566.994141
937.214844	11455.569336
935.306641	11361.239258
933.400391	11476.689453
931.492188	11502.967773
929.583984	11441.444336
927.675781	11531.907227
925.767578	11444.208984
923.857422	11211.204102
921.949219	11229.654297
920.039063	11224.536133
918.126953	11330.644531
916.216797	11142.350586
914.304688	11118.941406
912.394531	11151.771484
910.482422	10967.561523
908.568359	10936.362305
906.656250	10995.344727
904.742188	10910.584961
902.828125	10936.889648
900.914063	10826.060547
899.000000	10888.928711
897.083984	10724.639648
895.167969	10799.247070
893.251953	10727.686523
891.335938	10773.559570
889.417969	10777.677734
887.501953	10710.080078
885.583984	10607.314453
883.666016	10542.390625
881.746094	10646.884766
879.828125	10496.000000
877.908203	10640.832031
875.988281	10460.064453
874.068359	10505.898438
872.146484	10399.429688
870.226563	10355.467773
868.304688	10446.826172
866.382813	10369.053711
864.458984	10404.450195
862.537109	10240.914063
860.613281	10210.031250
858.689453	10276.625977
856.765625	10109.328125
854.841797	10262.942383
852.916016	10161.952148
850.990234	10158.383789
849.064453	10078.229492
847.138672	9986.430664
845.210938	10103.568359
843.283203	10100.012695
841.355469	10000.486328
839.427734	9925.640625
837.500000	9922.125000
835.570313	9875.840820
833.640625	9969.518555
831.710938	9953.039063
829.781250	9851.084961
827.851563	9772.483398
825.919922	9863.507813
823.988281	9647.741211
822.056641	9723.223633
820.123047	9635.662109
818.191406	9748.621094
816.257813	9670.144531
814.324219	9724.865234
812.390625	9683.912109
810.455078	9743.773438
808.519531	9562.005859
806.583984	9678.701172
804.648438	9843.125977
802.712891	10051.374023
800.775391	10325.360352
798.837891	10835.393555
796.900391	11143.916992
794.962891	11352.974609
793.025391	11328.506836
791.085938	11546.454102
789.146484	11756.567383
787.207031	12585.213867
785.265625	13731.752930
783.326172	14718.036133
781.384766	15370.298828
779.443359	15782.765625
777.501953	15781.801758
775.558594	15399.862305
773.615234	14558.710938
771.671875	13537.825195
769.728516	12640.872070
767.785156	11923.064453
765.839844	11344.425781
763.894531	10874.015625
761.949219	10653.116211
760.003906	10275.573242
758.056641	10347.767578
756.111328	10410.938477
754.164063	10452.253906
752.216797	10634.749023
750.267578	10836.410156
748.320313	10774.957031
746.371094	10699.420898
744.421875	10369.990234
742.470703	10075.325195
740.521484	9902.571289
738.570313	9836.267578
736.619141	9839.182617
734.667969	9921.519531
732.714844	10011.503906
730.763672	9972.121094
728.810547	10008.284180
726.857422	10087.947266
724.902344	10589.835938
722.949219	11215.588867
720.994141	12219.647461
719.039063	13321.714844
717.083984	13906.798828
715.126953	14333.128906
713.171875	14099.890625
711.214844	13419.606445
709.257813	12721.745117
707.298828	12150.620117
705.341797	11670.397461
703.382813	11385.682617
701.423828	11162.348633
699.464844	10921.252930
697.503906	10765.728516
695.544922	10505.699219
693.583984	10425.560547
691.621094	10191.217773
689.660156	10131.575195
687.697266	10004.429688
685.736328	9878.614258
683.773438	9735.025391
681.808594	9694.634766
679.845703	9562.607422
677.880859	9424.274414
675.916016	9307.634766
673.951172	9081.645508
671.984375	8921.891602
670.019531	8643.956055
668.052734	8315.294922
666.085938	8082.103516
664.117188	7883.325684
662.150391	7710.044922
660.181641	7524.140137
658.212891	7428.476563
656.244141	7207.170898
654.273438	7247.431152
652.304688	7097.327148
650.333984	7042.441895
648.363281	7078.904785
646.390625	7020.242676
644.419922	7054.157715
642.447266	6946.092773
640.474609	6794.989746
638.500000	7001.238281
636.527344	6937.590820
634.552734	6734.668457
632.578125	6763.534180
630.603516	6834.159180
628.628906	6857.926270
626.652344	6743.770508
624.675781	6786.520996
622.699219	6731.872070
620.722656	6755.639160
618.744141	6750.320313
616.765625	6779.126953
614.787109	6692.938477
612.808594	6691.425781
610.828125	6780.847168
608.849609	6832.346680
606.869141	6944.417969
604.888672	7082.941895
602.906250	7157.049805
600.925781	7144.077637
598.943359	7012.553223
596.960938	6894.958496
594.976563	6757.245605
592.994141	6667.489746
591.009766	6562.652344
589.025391	6489.357422
587.041016	6563.461426
585.054688	6515.384277
583.068359	6469.845703
581.083984	6336.219727
579.095703	6342.335938
577.109375	6335.867676
575.121094	6311.792480
573.134766	6261.318848
571.144531	6336.594238
569.156250	6273.567383
567.167969	6265.863281
565.177734	6124.982910
563.187500	6046.972168
561.197266	6063.184082
559.205078	6171.043457
557.212891	6175.921387
555.220703	6017.648926
553.228516	6011.266602
551.236328	6018.685059
549.242188	6101.347656
547.248047	6033.510742
545.253906	6012.085938
543.259766	5911.713867
541.263672	5869.024414
539.269531	6096.939453
537.273438	6138.139160
535.275391	6295.769043
533.279297	6460.837891
531.281250	6481.900391
529.283203	6461.660645
527.285156	6331.340820
525.287109	6268.618652
523.287109	6359.728516
521.287109	6344.533203
519.287109	6295.598145
517.287109	6351.649902
515.285156	6377.692871
513.283203	6443.691895
511.281250	6618.300293
509.279297	6694.201172
507.275391	6740.111328
505.273438	6827.180176
503.269531	7020.255371
501.265625	7051.090820
499.259766	7161.721680
497.253906	7226.172363
495.250000	7233.255371
493.242188	7207.934082
491.236328	7010.689453
489.228516	7050.201172
487.222656	6968.896973
485.214844	7210.097656
483.205078	7161.157227
481.197266	7190.640625
479.187500	6970.025879
477.177734	7099.052246
475.167969	7080.026367
473.156250	7176.640625
471.146484	7183.709473
469.134766	7404.534180
467.121094	7456.277344
465.109375	7660.789551
463.095703	7728.594727
461.082031	7678.410645
459.068359	7718.869629
457.054688	7645.128906
455.039063	7711.632813
453.025391	7683.825684
451.009766	7718.043457
448.992188	7664.207031
446.976563	7531.055176
444.958984	7514.467285
442.941406	7408.669434
440.923828	7211.246094
438.904297	7015.150391
436.886719	6900.869629
434.867188	6808.923828
432.845703	6808.609863
430.826172	7221.594238
428.804688	7513.149902
426.785156	7851.572754
424.761719	8145.324219
422.740234	8373.417969
420.716797	8461.737305
418.695313	8609.330078
416.671875	8697.554688
414.646484	8852.436523
412.623047	9314.733398
410.597656	10542.272461
408.572266	13641.715820
406.546875	20066.712891
404.519531	33154.769531
402.494141	65284.191406
400.466797	0.000000
398.437500	0.000000
396.410156	0.000000
394.380859	0.000000
392.351563	0.000000
390.322266	23539.455078
388.292969	14047.788086
386.261719	12349.183594
384.230469	11569.636719
382.199219	10612.000000
380.167969	10049.751953
378.134766	9728.859375
376.103516	10336.625977
374.070313	12692.517578
372.035156	18109.408203
370.001953	29673.615234
367.966797	53106.640625
365.931641	0.000000
363.896484	0.000000
361.859375	0.000000
359.824219	0.000000
357.787109	0.000000
355.750000	0.000000
353.710938	0.000000
351.671875	0.000000
349.634766	0.000000
347.593750	0.000000
345.554688	0.000000
343.513672	43603.226563
341.474609	19013.931641
339.431641	14126.440430
337.390625	12265.663086
335.347656	10845.225586
333.306641	9845.244141
331.263672	9061.081055
329.218750	8430.197266
327.175781	7880.325195
325.130859	7419.968750
323.085938	7027.061523
321.041016	6779.780762
318.994141	6717.128906
316.949219	6567.766113
314.902344	6351.293945
312.853516	6242.379395
310.806641	6050.496582
308.757813	5924.612305
306.708984	5549.847168
304.660156	5383.874023
302.611328	5248.470215
300.560547	5196.049805
298.509766	5186.323730
296.458984	5269.237305
294.408203	5540.995605
292.355469	5886.947266
290.302734	6366.724121
288.250000	6896.209473
286.197266	7037.072754
284.142578	7182.739746
282.087891	7290.614258
280.033203	7208.641602
277.978516	7283.618164
275.921875	7427.876465
273.865234	7427.386719
271.808594	7417.172363
269.751953	7535.778320
267.695313	7496.383301
265.636719	7448.502930
263.578125	7643.526855
261.519531	8013.296387
259.458984	8188.678223
257.398438	8560.578125
255.337891	8891.054688
253.277344	9314.781250
251.216797	9621.888672
249.154297	9805.183594
247.091797	10086.580078
245.029297	10768.987305
242.964844	11877.571289
240.902344	14031.039063
238.837891	16921.054688
236.773438	19969.564453
234.707031	21221.482422
232.642578	20362.175781
230.576172	17508.046875
228.509766	14608.051758
226.441406	12136.308594
224.375000	10276.307617
222.306641	9132.795898
220.238281	8542.123047
218.167969	8111.215332
216.099609	8087.603516
214.029297	8101.441895
211.958984	8278.278320
209.886719	8573.335938
207.816406	8992.567383
205.744141	9159.421875
203.671875	8749.569336
201.599609	8072.160156
199.525391	7464.997559
197.451172	7129.352539
195.376953	6779.398926
193.302734	6551.305664
191.226563	6422.100586
189.152344	6391.714355
187.076172	6286.686523
184.998047	6229.860352
182.921875	6159.820801
180.843750	6226.987305
178.765625	6238.784180
176.687500	6215.695801
174.607422	6244.323242
172.529297	6162.336914
170.449219	6038.321289
168.367188	5945.604980
166.287109	5789.259766
164.205078	5732.674805
162.123047	5601.666504
160.041016	5565.558594
157.958984	5387.839844
155.875000	5370.996094
153.791016	5513.717285
151.707031	5399.700195
149.621094	5210.190430
147.537109	5465.540039
145.451172	5653.651367
143.363281	5751.803223
141.277344	6099.097168
139.189453	6124.037598
137.101563	5431.687012
135.013672	4646.275391
132.925781	4223.889648
130.835938	4112.822754
128.746094	4097.515625
126.656250	4289.137207
124.566406	4538.067871
122.474609	4449.745117
120.382813	4398.515137
118.291016	4215.862305
116.199219	4054.797607
114.105469	3830.503174
112.011719	3765.133057
109.917969	3791.720703
107.822266	3863.652344
105.728516	3767.292969
103.632813	3597.009521
101.537109	3280.094971
99.439453	2988.368896
