#Wave		#Intensity
1303.396484	1349.951172
1302.295898	1313.588867
1301.196289	1383.805908
1300.095703	1372.211670
1298.995117	1335.635010
1297.894531	1360.390381
1296.792969	1321.557251
1295.692383	1384.902100
1294.590820	1307.488770
1293.489258	1357.197021
1292.387695	1436.387695
1291.285156	1415.724609
1290.183594	1404.141968
1289.081055	1460.603882
1287.978516	1396.861938
1286.875977	1367.150269
1285.773438	1421.322632
1284.669922	1416.548096
1283.567383	1420.839355
1282.463867	1336.766602
1281.360352	1352.396606
1280.255859	1415.584717
1279.152344	1437.989380
1278.047852	1390.197266
1276.943359	1358.267822
1275.838867	1369.353638
1274.734375	1387.224609
1273.629883	1418.665161
1272.524414	1327.934082
1271.418945	1384.254272
1270.313477	1399.848877
1269.208008	1331.777954
1268.102539	1399.371948
1266.996094	1394.612915
1265.889648	1328.837280
1264.783203	1394.137573
1263.676758	1450.378906
1262.570313	1411.732422
1261.462891	1434.075562
1260.355469	1406.734985
1259.248047	1392.949341
1258.140625	1433.341919
1257.033203	1358.621338
1255.924805	1371.928223
1254.817383	1335.596924
1253.708984	1303.789185
1252.600586	1400.544800
1251.491211	1380.011230
1250.382813	1323.412231
1249.273438	1309.661255
1248.164063	1363.527832
1247.054688	1397.095459
1245.945313	1381.085693
1244.835938	1356.070923
1243.725586	1434.666870
1242.615234	1335.340698
1241.504883	1364.381104
1240.394531	1325.879517
1239.283203	1327.903320
1238.172852	1311.924072
1237.061523	1329.698730
1235.950195	1356.465454
1234.838867	1333.741699
1233.726563	1333.513306
1232.615234	1450.200317
1231.502930	1306.080566
1230.390625	1332.828003
1229.278320	1370.802246
1228.165039	1370.567261
1227.052734	1350.114258
1225.939453	1322.929932
1224.826172	1318.211670
1223.712891	1302.268433
1222.599609	1293.065308
1221.485352	1353.445435
1220.371094	1272.424316
1219.256836	1314.837036
1218.142578	1366.208496
1217.028320	1278.497681
1215.913086	1215.485474
1214.798828	1280.300537
1213.683594	1313.707764
1212.567383	1356.069214
1211.452148	1319.979248
1210.336914	1326.474243
1209.220703	1330.726563
1208.104492	1296.899170
1206.988281	1339.226563
1205.872070	1350.191650
1204.754883	1291.751953
1203.637695	1360.918457
1202.520508	1268.927368
1201.403320	1259.758301
1200.286133	1257.304077
1199.168945	1348.796509
1198.050781	1270.289063
1196.932617	1395.288208
1195.814453	1354.805786
1194.696289	1280.808105
1193.577148	1264.942993
1192.458984	1287.069580
1191.339844	1298.017822
1190.220703	1233.015747
1189.100586	1288.636108
1187.981445	1281.714600
1186.861328	1290.423340
1185.741211	1299.129028
1184.621094	1294.440796
1183.500977	1316.531006
1182.380859	1329.689331
1181.259766	1293.769165
1180.138672	1282.393921
1179.017578	1255.413574
1177.896484	1288.638306
1176.774414	1328.538818
1175.653320	1274.819702
1174.531250	1283.512085
1173.409180	1292.201294
1172.287109	1332.073120
1171.164063	1262.800049
1170.041016	1240.313232
1168.918945	1237.871704
1167.795898	1346.730957
1166.671875	1281.954224
1165.548828	1339.587646
1164.424805	1281.509033
1163.300781	1299.082031
1162.176758	1332.217285
1161.052734	1338.656738
1159.928711	1302.851318
1158.803711	1300.401733
1157.678711	1286.840454
1156.553711	1237.729492
1155.428711	1233.070557
1154.302734	1259.512207
1153.177734	1297.049438
1152.051758	1296.823486
1150.925781	1289.936890
1149.799805	1245.315796
1148.672852	1242.879272
1147.546875	1324.766968
1146.419922	1377.783569
1145.292969	1310.995117
1144.165039	1335.162964
1143.038086	1272.840210
1141.910156	1257.098145
1140.782227	1290.129272
1139.654297	1234.495605
1138.526367	1232.063965
1137.398438	1227.417358
1136.269531	1273.721313
1135.140625	1233.632446
1134.011719	1259.989258
1132.882813	1259.768799
1131.752930	1290.538818
1130.624023	1274.820190
1129.494141	1230.340088
1128.364258	1287.648193
1127.233398	1285.210449
1126.103516	1260.656738
1124.972656	1269.280762
1123.841797	1224.839966
1122.710938	1277.677368
1121.580078	1219.989868
1120.448242	1224.195068
1119.317383	1281.423218
1118.185547	1237.018799
1117.053711	1203.672852
1115.920898	1229.959473
1114.789063	1282.730225
1113.656250	1282.504639
1112.523438	1251.380737
1111.390625	1235.713989
1110.257813	1246.527710
1109.124023	1239.690552
1107.990234	1254.910400
1106.856445	1272.329956
1105.722656	1276.515015
1104.588867	1269.677002
1103.454102	1309.123413
1102.319336	1262.618530
1101.184570	1326.286499
1100.049805	1257.767334
1098.915039	1217.902710
1097.779297	1184.658081
1096.643555	1204.262939
1095.507813	1208.452515
1094.372070	1283.065918
1093.236328	1214.626343
1092.099609	1203.411255
1090.962891	1179.002319
1089.826172	1224.977661
1088.689453	1233.556152
1087.552734	1294.894531
1086.415039	1261.693970
1085.277344	1208.725952
1084.139648	1250.260132
1083.001953	1274.204346
1081.863281	1247.620117
1080.725586	1319.870728
1079.586914	1240.589966
1078.448242	1200.853394
1077.308594	1183.080444
1076.169922	1207.010376
1075.030273	1149.747192
1073.890625	1197.806030
1072.750977	1230.493774
1071.611328	1254.397827
1070.470703	1230.055786
1069.330078	1196.953369
1068.189453	1185.781006
1067.048828	1284.184570
1065.908203	1200.695801
1064.766602	1233.341553
1063.625000	1257.214600
1062.483398	1204.433105
1061.341797	1248.007935
1060.200195	1245.595947
1059.057617	1164.391357
1057.915039	1179.501587
1056.772461	1216.485474
1055.629883	1260.018555
1054.486328	1261.980347
1053.343750	1180.844849
1052.200195	1237.478882
1051.056641	1217.583618
1049.912109	1228.293457
1048.768555	1182.184570
1047.624023	1164.494385
1046.479492	1192.682739
1045.334961	1192.468872
1044.190430	1251.212646
1043.044922	1183.308105
1041.899414	1196.192749
1040.753906	1228.714478
1039.608398	1193.580933
1038.462891	1223.909668
1037.316406	1230.233521
1036.169922	1186.394775
1035.023438	1173.098511
1033.876953	1212.129028
1032.729492	1194.473267
1031.583008	1226.947632
1030.435547	1189.685181
1029.288086	1206.898926
1028.139648	1224.106445
1026.992188	1197.752808
1025.843750	1184.472778
1024.695313	1206.028442
1023.546875	1138.337646
1022.398438	1138.132080
1021.249023	1174.914551
1020.099609	1150.773071
1018.950195	1181.014771
1017.800781	1143.833252
1016.650391	1152.323120
1015.500977	1197.764404
1014.350586	1238.842285
1013.200195	1134.313354
1012.049805	1173.214966
1010.898438	1166.485718
1009.747070	1218.398193
1008.595703	1174.748535
1007.444336	1141.969727
1006.292969	1059.277710
1005.140625	1180.619873
1003.988281	1130.498535
1002.835938	1138.971069
1001.683594	1084.537231
1000.531250	1158.075195
999.377930	1118.835449
998.224609	1166.325439
997.071289	1202.960693
995.917969	1146.396973
994.763672	1206.856079
993.610352	1132.981567
992.456055	1124.111328
991.300781	1184.541016
990.146484	1195.150635
988.992188	1142.979004
987.836914	1136.277344
986.681641	1116.594360
985.525391	1155.334229
984.370117	1161.612671
983.213867	1202.492676
982.057617	1167.675049
980.901367	1100.440552
979.745117	1149.955200
978.587891	1154.067139
977.431641	1164.659668
976.274414	1127.719727
975.117188	1099.433228
973.958984	1133.785156
972.800781	1189.716309
971.643555	1116.098877
970.485352	1169.854126
969.326172	1143.743286
968.167969	1126.272339
967.008789	1141.165894
965.849609	1112.917480
964.690430	1149.372070
963.531250	1175.032959
962.371094	1174.816772
961.210938	1185.376587
960.050781	1146.371338
958.890625	1096.608154
957.729492	1085.635864
956.569336	1128.508545
955.408203	1119.687500
954.247070	1171.149292
953.084961	1145.103760
951.923828	1095.395142
950.761719	1155.439209
949.599609	1161.679443
948.437500	1129.201904
947.274414	1139.745361
946.112305	1219.087036
944.949219	1096.330444
943.786133	1104.724487
942.622070	1173.283936
941.458984	1127.948608
940.294922	1138.479980
939.130859	1118.939819
937.966797	1123.026855
936.802734	1150.728027
935.637695	1116.170654
934.472656	1137.424316
933.307617	1150.087158
932.142578	1154.164063
930.976563	1134.645630
929.810547	1188.046875
928.644531	1142.799927
927.478516	1134.012573
926.312500	1155.234375
925.145508	1131.447388
923.978516	1109.811768
922.811523	1113.889038
921.644531	1105.114624
920.476563	1126.321533
919.308594	1087.575195
918.140625	1123.760742
916.972656	1095.729614
915.804688	1185.392212
914.635742	1108.156128
913.466797	1082.282227
912.297852	1141.957764
911.128906	1128.915527
909.958984	1385.228027
908.790039	1205.435669
907.620117	1158.198242
906.449219	1145.162231
905.279297	1076.592529
904.108398	1110.561890
902.937500	1099.677124
901.766602	1129.359253
900.595703	1118.474854
899.423828	1073.448853
898.251953	1060.445068
897.080078	1113.578125
895.908203	1049.382080
894.736328	1085.437012
893.563477	1125.742554
892.390625	1070.106812
891.217773	1089.086914
890.044922	1014.300842
888.871094	1099.328979
887.697266	1099.121826
886.523438	1111.692627
885.349609	1041.216797
884.174805	1060.180176
883.000977	1115.320435
881.826172	1074.676392
880.650391	1087.239380
879.475586	1091.288452
878.299805	1118.731445
877.124023	1095.128784
875.948242	1075.786987
874.772461	1054.326782
873.595703	1086.005981
872.419922	1062.426880
871.243164	1070.723389
870.065430	1081.140747
868.888672	1089.430298
867.710938	1053.128540
866.533203	1110.245361
865.355469	1093.055054
864.177734	1073.749146
862.999023	1111.734497
861.820313	1153.947754
860.641602	1117.674316
859.462891	1138.666016
858.283203	1102.409058
857.104492	1076.763794
855.924805	1089.274048
854.744141	1057.284424
853.564453	1110.042969
852.383789	1118.303345
851.203125	1035.503906
850.022461	1058.595459
848.841797	1102.845947
847.660156	1089.937134
846.478516	1129.932495
845.296875	1068.364990
844.115234	1053.354614
842.932617	1127.169922
841.750977	1091.010254
840.568359	1141.536377
839.384766	1103.273926
838.202148	1094.610107
837.018555	1085.949341
835.834961	1068.842529
834.651367	1115.100098
833.467773	1108.551758
832.283203	1135.783569
831.098633	1097.572754
829.914063	1129.016602
828.729492	1175.217651
827.543945	1111.706909
826.358398	1132.584106
825.172852	1130.257568
823.987305	1134.256714
822.801758	1150.901489
821.615234	1106.422974
820.428711	1135.708862
819.242188	1099.676880
818.054688	1120.527466
816.868164	1107.676270
815.680664	1094.829956
814.493164	1140.929565
813.304688	1130.186157
812.117188	1119.446899
810.928711	1081.361938
809.740234	1091.670044
808.551758	1091.458984
807.362305	1110.171265
806.172852	1152.000366
804.983398	1151.777344
803.793945	1180.973633
802.603516	1298.399292
801.414063	1338.058350
800.223633	1478.509399
799.033203	1490.821289
797.841797	1490.532104
796.651367	1494.440796
795.459961	1527.727173
794.267578	1519.037964
793.076172	1556.501709
791.883789	1539.420898
790.692383	1654.450928
789.500000	1874.260376
788.306641	2133.809814
787.114258	2539.955078
785.920898	2841.178467
784.727539	3087.818359
783.534180	3137.483398
782.339844	3254.138184
781.145508	3293.282715
779.951172	3269.614990
778.756836	3281.533936
777.562500	3193.012451
776.367188	3140.089111
775.171875	2947.049561
773.976563	2636.979004
772.780273	2421.114014
771.584961	2240.869385
770.388672	2075.324707
769.192383	1943.277100
767.995117	1888.579224
766.798828	1762.885742
765.601563	1674.831055
764.404297	1630.656738
763.206055	1576.062134
762.008789	1577.840088
760.810547	1546.230347
759.612305	1512.546631
758.413086	1487.219238
757.214844	1555.747070
756.015625	1595.057251
754.816406	1653.113525
753.617188	1694.472900
752.416992	1779.576050
751.216797	1822.977295
750.016602	1826.784546
748.816406	1865.993896
747.616211	1742.778198
746.415039	1682.063721
745.213867	1648.430542
744.012695	1564.867920
742.810547	1533.351318
741.609375	1478.965576
740.407227	1555.622925
739.205078	1524.126343
738.001953	1573.718628
736.798828	1619.134155
735.596680	1614.657959
734.392578	1651.736450
733.189453	1659.718750
731.985352	1703.003906
730.781250	1629.991943
729.577148	1544.552734
728.373047	1604.439209
727.167969	1591.670166
725.962891	1703.392578
724.757813	1858.632324
723.552734	2017.958130
722.346680	2297.486084
721.141602	2605.926758
719.934570	2833.408447
718.728516	3040.076416
717.522461	3143.067139
716.315430	3096.869629
715.108398	3100.395996
713.900391	2923.773193
712.693359	2827.959961
711.485352	2599.715088
710.277344	2551.600586
709.069336	2393.847412
707.860352	2360.272705
706.651367	2359.802246
705.442383	2359.331787
704.233398	2544.923828
703.023438	2232.306396
701.814453	2126.467529
700.604492	2142.571777
699.393555	2045.055420
698.183594	2073.561035
696.972656	2009.135010
695.761719	1934.412231
694.550781	1919.576904
693.338867	1964.593018
692.126953	1931.188110
690.915039	1860.665527
689.703125	1843.793579
688.491211	1909.407959
687.278320	1923.456421
686.065430	1867.419189
684.851563	1891.773682
683.638672	1864.609741
682.424805	1864.235596
681.210938	1909.170654
679.997070	1884.078003
678.782227	1836.349609
677.568359	1796.873413
676.353516	1847.958740
675.137695	1796.150879
673.922852	1771.105225
672.707031	1593.879639
671.491211	1587.390137
670.275391	1517.173584
669.058594	1502.480469
667.842773	1442.583740
666.625977	1429.965698
665.408203	1407.081909
664.191406	1402.690674
662.973633	1340.808472
661.755859	1262.528076
660.538086	1217.118652
659.319336	1229.185303
658.100586	1298.692993
656.881836	1220.483643
655.663086	1146.407471
654.444336	1166.679688
653.224609	1232.043335
652.004883	1176.455566
650.784180	1196.708984
649.564453	1200.564209
648.343750	1155.257813
647.123047	1159.119507
645.902344	1122.029663
644.680664	1187.308838
643.458984	1182.974731
642.237305	1154.087280
641.015625	1106.798706
639.792969	1063.620239
638.571289	1098.169312
637.347656	1095.901733
636.125000	1146.783447
634.902344	1099.543945
633.678711	1158.577393
632.455078	1152.213013
631.230469	1135.638428
630.006836	1137.449463
628.782227	1073.925781
627.557617	1159.440308
626.332031	1128.591431
625.107422	1163.048828
623.881836	1187.292114
622.656250	1134.020264
621.429688	1141.945801
620.204102	1109.092407
618.977539	1131.288086
617.750000	1157.550415
616.523438	1145.088867
615.295898	1134.669434
614.068359	1181.281616
612.840820	1233.983276
611.613281	1280.555786
610.384766	1168.344604
609.156250	1210.841187
607.927734	1279.770142
606.698242	1271.371460
605.469727	1305.685425
604.240234	1327.785034
603.009766	1349.875366
601.780273	1386.184326
600.549805	1369.643311
599.319336	1296.221436
598.088867	1314.237061
596.857422	1311.936646
595.625977	1283.241089
594.394531	1224.106934
593.163086	1201.529907
591.930664	1203.312256
590.699219	1233.496704
589.466797	1231.214844
588.233398	1255.297119
587.000977	1236.791260
585.767578	1193.967529
584.533203	1195.748535
583.299805	1225.896606
582.065430	1225.644287
580.832031	1280.078735
579.596680	1202.864136
578.362305	1218.813232
577.126953	1218.562012
575.891602	1252.714966
574.656250	1205.919434
573.419922	1240.060669
572.184570	1185.196777
570.948242	1243.593140
569.710938	1225.141235
568.474609	1245.100952
567.237305	1234.739502
566.000000	1173.871460
564.762695	1189.788940
563.524414	1193.582275
562.286133	1231.699829
561.047852	1273.839111
559.809570	1190.823486
558.570313	1162.326050
557.331055	1198.400635
556.091797	1212.272095
554.852539	1214.037720
553.612305	1191.607422
552.372070	1219.582275
551.131836	1265.684082
549.890625	1241.241699
548.650391	1234.940552
547.409180	1194.401001
546.167969	1230.400635
544.925781	1201.958618
543.683594	1179.567139
542.441406	1271.896973
541.199219	1263.584473
539.956055	1249.240356
538.712891	1373.677734
537.469727	1500.073975
536.226563	1441.460449
534.982422	1451.210571
533.738281	1462.966064
532.494141	1518.917969
531.250000	1488.470825
530.004883	1492.177612
528.759766	1397.495728
527.514648	1475.496338
526.268555	1433.040649
525.023438	1444.781982
523.777344	1454.511963
522.530273	1428.133179
521.284180	1439.867676
520.037109	1457.612061
518.790039	1489.380859
517.541992	1483.057617
516.294922	1516.811157
515.046875	1620.665894
513.798828	1564.246826
512.549805	1611.979126
511.301758	1573.603638
510.052734	1607.302368
508.802734	1650.992798
507.553711	1738.682129
506.303711	1728.316772
505.053711	1787.953735
503.803711	1749.588501
502.552734	1711.239258
501.301758	1784.832764
500.050781	1848.403809
498.799805	1816.051025
497.547852	1847.629639
496.295898	1849.239624
495.043945	1812.913330
493.791992	1822.514160
492.539063	1834.106689
491.286133	1829.731445
490.033203	1825.357788
488.779297	1769.128662
487.525391	1842.538818
486.271484	1820.221680
485.017578	1851.731567
483.762695	1827.428833
482.508789	1840.991943
481.252930	1860.525146
479.998047	1852.167969
478.742188	1873.681519
477.486328	1873.287720
476.230469	1858.961670
474.974609	1890.409180
473.717773	1858.179810
472.460938	1821.985718
471.204102	1855.409424
469.946289	1930.571655
468.688477	2079.251221
467.430664	2138.435303
466.172852	2199.581055
464.914063	2340.163330
463.655273	2307.892090
462.396484	2249.820068
461.136719	2185.816406
459.877930	2191.310303
458.618164	2163.065674
457.357422	2188.402100
456.097656	2235.547607
454.836914	2312.421143
453.576172	2288.139893
452.314453	2285.674561
451.053711	2227.715576
449.791992	2201.485352
448.530273	2131.681396
447.267578	2059.926025
446.004883	2079.293701
444.742188	2043.216919
443.479492	2078.415283
442.216797	1965.171509
440.953125	1879.676025
439.689453	1885.213257
438.424805	1942.169922
437.161133	1846.846191
435.896484	1876.109619
434.630859	1921.172485
433.366211	1893.100586
432.100586	1876.894531
430.834961	1945.631348
429.569336	1864.250854
428.302734	2007.989014
427.036133	2064.810059
425.769531	2103.844238
424.502930	2085.640137
423.235352	2037.852173
421.967773	2045.309570
420.700195	2044.876099
419.431641	2107.530518
418.164063	2101.170410
416.895508	2090.871338
415.625977	2076.636230
414.357422	2241.661133
413.087891	2288.451172
411.818359	2394.291016
410.547852	2663.477051
409.278320	2828.236816
408.007813	3268.409180
406.736328	3905.126221
405.465820	5739.414551
404.194336	14296.327148
402.922852	56424.089844
401.650391	100786.578125
400.378906	91047.109375
399.106445	43074.566406
397.833984	15888.018555
396.560547	7504.354004
395.287109	4702.723633
394.013672	3639.664063
392.740234	3073.625488
391.466797	2778.625732
390.192383	2515.141602
388.916992	2369.457520
387.642578	2270.900635
386.367188	2146.897217
385.091797	2011.185181
383.816406	2000.958008
382.541016	2059.313721
381.264648	2025.572632
379.988281	2050.602539
378.710938	2093.244629
377.434570	2210.261719
376.157227	2366.375000
374.879883	2604.610352
373.601563	2868.178223
372.323242	3366.359375
371.044922	4560.532715
369.766602	7173.682617
368.487305	14707.898438
367.208008	34637.496094
365.928711	64441.742188
364.649414	81208.968750
363.369141	72638.890625
362.088867	52832.636719
360.808594	37044.847656
359.527344	27747.943359
358.247070	21918.851563
356.964844	17694.056641
355.683594	14233.760742
354.401367	11646.687500
353.119141	9774.343750
351.836914	8095.787598
350.554688	6803.842773
349.271484	5857.343262
347.988281	5143.075195
346.704102	4662.837891
345.420898	4169.174316
344.136719	3712.712402
342.852539	3525.058105
341.567383	3417.271973
340.282227	3068.272461
338.997070	2915.889404
337.711914	2798.577881
336.425781	2591.874268
335.140625	2587.432373
333.853516	2450.829834
332.567383	2300.683838
331.280273	2259.394531
329.993164	2053.026123
328.706055	2013.749268
327.417969	1935.659302
326.129883	1880.895386
324.841797	1903.781006
323.553711	1849.047119
322.264648	1714.803711
320.975586	1786.195068
319.686523	1690.802246
318.396484	1700.133301
317.106445	1693.955078
315.816406	1546.323730
314.526367	1586.676758
313.235352	1574.715698
311.944336	1566.632690
310.653320	1554.680786
309.362305	1562.090820
308.070313	1573.367920
306.778320	1478.223633
305.485352	1518.530273
304.193359	1545.281372
302.900391	1521.747314
301.606445	1523.354614
300.313477	1534.625122
299.019531	1586.470337
297.725586	1561.015259
296.431641	1628.284668
295.136719	1631.798218
293.841797	1760.806274
292.546875	1895.549683
291.250977	1929.881592
289.955078	2145.568604
288.659180	2229.987549
287.363281	2381.872559
286.066406	2392.931641
284.769531	2467.603760
283.472656	2409.252930
282.175781	2505.086426
280.877930	2598.951904
279.580078	2594.542725
278.282227	2584.358154
276.983398	2633.863037
275.684570	2596.725098
274.385742	2763.601563
273.085938	2697.589844
271.787109	2658.538086
270.486328	2644.505371
269.186523	2626.632813
267.885742	2601.078125
266.585938	2646.649658
265.284180	2738.320801
263.983398	2710.836914
262.681641	2750.592773
261.379883	2684.709961
260.078125	2807.013428
258.775391	2825.607666
257.472656	2982.373047
256.169922	3077.671387
254.866211	2944.646484
253.563477	2934.426025
252.259766	2830.251221
250.955078	2737.623779
249.651367	2600.951904
248.346680	2552.487549
247.041992	2534.697754
245.736328	2478.606201
244.430664	2569.997314
243.125000	2536.897705
241.819336	2432.985840
240.512695	2558.776367
239.206055	2531.440430
237.899414	2618.895996
236.592773	2673.799805
235.285156	2547.023193
233.977539	2619.124756
232.668945	2706.486084
231.361328	2619.913330
230.052734	2758.821533
228.744141	2762.050781
227.434570	2845.486816
226.125000	2875.426270
224.815430	2872.901367
223.505859	2900.913574
222.195313	2927.005371
220.884766	3073.269531
219.574219	3064.982178
218.262695	3129.159180
216.952148	3221.905029
215.639648	3375.604736
214.328125	3422.522705
213.015625	3587.544678
211.703125	3876.309326
210.390625	4258.266113
209.078125	4322.090820
207.764648	4157.456055
206.451172	3994.794678
205.136719	3638.119385
203.823242	3481.345947
202.508789	3328.443359
201.193359	3226.948242
199.878906	3127.397705
198.563477	3069.706055
197.248047	3046.245117
195.932617	2950.596436
194.616211	2877.783203
193.299805	2850.579834
191.983398	2726.553711
190.666016	2746.851807
189.348633	2763.345459
188.031250	2673.572021
186.713867	2633.161377
185.395508	2742.605957
184.077148	2658.583252
182.757813	2633.368408
181.439453	2701.042480
180.120117	2753.526855
178.800781	2686.625244
177.480469	2612.175049
176.161133	2549.119873
174.840820	2501.239014
173.519531	2472.309082
172.199219	2534.237793
170.877930	2522.343018
169.556641	2427.212891
168.234375	2419.128906
166.912109	2395.919922
165.589844	2393.517822
164.267578	2306.057129
162.944336	2275.327881
161.621094	2135.026123
160.297852	2043.898438
158.974609	1971.695557
157.650391	1958.057495
156.326172	1884.015869
155.000977	1806.230957
153.676758	1756.784058
152.351563	1767.728882
151.026367	1731.514404
149.700195	1699.086914
148.374023	1727.005371
147.047852	1673.857910
145.721680	1730.038330
144.394531	1669.376099
143.067383	1648.298950
141.740234	1589.563232
140.412109	1628.766968
139.083984	1585.120972
137.755859	1613.015869
136.427734	1520.465942
135.098633	1505.091309
133.769531	1493.485107
132.440430	1485.645020
131.110352	1430.804077
129.780273	1509.449707
128.450195	1484.696899
127.120117	1435.527954
125.789063	1444.615479
124.458008	1464.968140
123.126953	1430.856934
121.794922	1355.458130
120.462891	1375.816650
119.130859	1394.289917
117.797852	1405.250732
116.465820	1363.685303
115.132813	1423.407471
113.798828	1404.355469
112.465820	1364.691284
111.131836	1336.288940
109.796875	1289.160767
108.462891	1363.822510
107.127930	1253.026978
105.792969	1280.850098
104.458008	1256.239868
103.122070	1282.178711
101.786133	1317.463379
100.450195	1287.248169
99.113281	1262.657471
97.776367	1176.360352
96.439453	1237.814941
95.102539	1173.992676
93.764648	1199.910400
92.426758	1151.072144
91.088867	1160.169678
89.750000	1094.549927
88.411133	1081.246338
87.072266	1142.630005
85.733398	1172.254761
84.393555	1158.943115
83.053711	1136.307861
81.713867	1132.336792
80.373047	1102.256348
79.032227	1124.399658
77.691406	1126.026489
76.350586	1153.746948
75.008789	1140.458984
