#Wave		#Intensity
1945.189453	11398.534180
1943.490234	11560.319336
1941.789063	11854.010742
1940.089844	11819.726563
1938.388672	11559.060547
1936.687500	11604.199219
1934.986328	11664.015625
1933.285156	11729.685547
1931.583984	11770.357422
1929.880859	11652.375977
1928.179688	11591.706055
1926.476563	11550.141602
1924.773438	11568.781250
1923.070313	11530.164063
1921.367188	11874.608398
1919.664063	11758.174805
1917.958984	11842.775391
1916.255859	11600.226563
1914.550781	11615.886719
1912.845703	11650.601563
1911.140625	11820.188477
1909.435547	11676.009766
1907.730469	11745.863281
1906.023438	11490.367188
1904.316406	11580.735352
1902.611328	11593.427734
1900.904297	11683.742188
1899.197266	11554.357422
1897.488281	11290.308594
1895.781250	11477.238281
1894.074219	11526.514648
1892.365234	11495.282227
1890.656250	11664.514648
1888.947266	11422.600586
1887.238281	11321.184570
1885.529297	11598.570313
1883.818359	11644.833008
1882.109375	11758.326172
1880.398438	11477.123047
1878.687500	11573.062500
1876.976563	11519.925781
1875.265625	11550.077148
1873.554688	11466.282227
1871.841797	11394.197266
1870.130859	11412.665039
1868.417969	11304.110352
1866.705078	11386.805664
1864.992188	11370.230469
1863.279297	11282.159180
1861.564453	11100.747070
1859.851563	11202.371094
1858.136719	11403.127930
1856.421875	11500.284180
1854.707031	11351.022461
1852.992188	11214.927734
1851.277344	11419.902344
1849.562500	11419.349609
1847.845703	11388.200195
1846.128906	11239.075195
1844.412109	11041.940430
1842.695313	11242.382813
1840.978516	11313.182617
1839.261719	11287.887695
1837.542969	11234.948242
1835.824219	11390.096680
1834.105469	11159.668945
1832.386719	11090.772461
1830.667969	11168.779297
1828.949219	11187.140625
1827.228516	11106.637695
1825.509766	11052.324219
1823.789063	11034.358398
1822.068359	11129.727539
1820.347656	11079.789063
1818.626953	11103.940430
1816.904297	11080.159180
1815.183594	11063.642578
1813.460938	11230.039063
1811.738281	11191.725586
1810.015625	11011.211914
1808.292969	10941.027344
1806.568359	10988.365234
1804.845703	11089.345703
1803.121094	11209.138672
1801.396484	10966.429688
1799.671875	10967.333008
1797.947266	10818.955078
1796.222656	11099.541992
1794.496094	11217.761719
1792.769531	11120.109375
1791.044922	10997.871094
1789.318359	10990.063477
1787.589844	10857.754883
1785.863281	10867.340820
1784.136719	10826.269531
1782.408203	10958.838867
1780.679688	10770.204102
1778.951172	11009.761719
1777.222656	10851.550781
1775.494141	10720.866211
1773.763672	10818.626953
1772.035156	11245.877930
1770.304688	10805.949219
1768.574219	10821.281250
1766.843750	10822.160156
1765.111328	10773.932617
1763.380859	10585.657227
1761.648438	10631.327148
1759.917969	10734.713867
1758.185547	10738.483398
1756.453125	10544.573242
1754.718750	10593.092773
1752.986328	10614.187500
1751.251953	10831.392578
1749.517578	10806.291992
1747.785156	10714.888672
1746.048828	10557.218750
1744.314453	10745.443359
1742.580078	10618.078125
1740.843750	10624.718750
1739.107422	10707.684570
1737.371094	10544.394531
1735.634766	10576.952148
1733.898438	10561.997070
1732.160156	10611.803711
1730.423828	10652.957031
1728.685547	10719.985352
1726.947266	10729.456055
1725.208984	10493.024414
1723.470703	10512.593750
1721.730469	10629.900391
1719.992188	10488.468750
1718.251953	10292.487305
1716.511719	10392.522461
1714.771484	10555.716797
1713.029297	10639.862305
1711.289063	10363.587891
1709.546875	10443.426758
1707.804688	10540.456055
1706.062500	10397.806641
1704.320313	10411.590820
1702.578125	10563.071289
1700.833984	10469.253906
1699.091797	10388.375000
1697.347656	10501.059570
1695.603516	10501.900391
1693.857422	10294.948242
1692.113281	10516.469727
1690.369141	10421.324219
1688.623047	10478.027344
1686.876953	10584.823242
1685.130859	10492.577148
1683.384766	10421.834961
1681.636719	10288.150391
1679.890625	10562.298828
1678.142578	10491.578125
1676.394531	10273.565430
1674.646484	10311.603516
1672.896484	10328.178711
1671.148438	10371.904297
1669.398438	10529.943359
1667.650391	10167.810547
1665.900391	10315.823242
1664.148438	10282.380859
1662.398438	10236.097656
1660.648438	10234.089844
1658.896484	10122.166992
1657.144531	10161.567383
1655.392578	10138.166016
1653.640625	10053.427734
1651.886719	10224.037109
1650.134766	10327.551758
1648.380859	10308.406250
1646.626953	10007.016602
1644.873047	10096.254883
1643.119141	10302.301758
1641.363281	10139.278320
1639.609375	10027.594727
1637.853516	9925.922852
1636.097656	10013.655273
1634.341797	10230.892578
1632.583984	10154.853516
1630.828125	10002.002930
1629.070313	9955.912109
1627.312500	10099.016602
1625.554688	10000.302734
1623.796875	10178.882813
1622.037109	10294.842773
1620.279297	10027.012695
1618.519531	10091.797852
1616.759766	9892.304688
1615.000000	9884.646484
1613.238281	10058.764648
1611.478516	9936.064453
1609.716797	10013.570313
1607.955078	10100.977539
1606.193359	10070.571289
1604.431641	10102.599609
1602.669922	10019.719727
1600.906250	10087.195313
1599.142578	9936.291992
1597.378906	10050.533203
1595.615234	9901.111328
1593.851563	9808.428711
1592.085938	10041.625000
1590.322266	9974.443359
1588.556641	9975.260742
1586.791016	9929.354492
1585.025391	9846.660156
1583.257813	9822.023438
1581.492188	9987.003906
1579.724609	10009.030273
1577.957031	9895.262695
1576.189453	9872.043945
1574.419922	9800.761719
1572.652344	10057.452148
1570.882813	10032.796875
1569.113281	9848.481445
1567.343750	9619.034180
1565.574219	9816.225586
1563.802734	9887.655273
1562.033203	9882.816406
1560.261719	9748.116211
1558.490234	9722.134766
1556.718750	9728.615234
1554.947266	9914.248047
1553.173828	10037.745117
1551.400391	9803.025391
1549.626953	9566.989258
1547.853516	9790.553711
1546.080078	9647.624023
1544.304688	9814.718750
1542.531250	9521.113281
1540.755859	9706.471680
1538.980469	9524.243164
1537.205078	9596.898438
1535.427734	9651.224609
1533.652344	9670.346680
1531.875000	9482.642578
1530.097656	9511.634766
1528.320313	9698.124023
1526.541016	9760.801758
1524.763672	9695.528320
1522.984375	9548.762695
1521.205078	9473.720703
1519.425781	9527.958008
1517.646484	9506.323242
1515.865234	9566.145508
1514.085938	9413.935547
1512.304688	9409.177734
1510.523438	9637.390625
1508.740234	9590.491211
1506.958984	9467.856445
1505.175781	9430.827148
1503.394531	9513.003906
1501.611328	9501.212891
1499.826172	9612.774414
1498.042969	9476.240234
1496.259766	9373.388672
1494.474609	9511.517578
1492.689453	9450.713867
1490.904297	9384.333008
1489.117188	9239.582031
1487.332031	9325.831055
1485.544922	9270.708984
1483.757813	9142.856445
1481.970703	9487.839844
1480.183594	9334.820313
1478.394531	9181.864258
1476.607422	9291.773438
1474.818359	9341.538086
1473.029297	9437.392578
1471.240234	9535.999023
1469.449219	9226.720703
1467.658203	9360.237305
1465.869141	9273.108398
1464.078125	9472.161133
1462.285156	9149.195313
1460.494141	9313.306641
1458.701172	9376.911133
1456.910156	9313.572266
1455.117188	9313.005859
1453.324219	9090.780273
1451.529297	9185.035156
1449.736328	9210.968750
1447.941406	9328.839844
1446.146484	9165.294922
1444.351563	9198.174805
1442.554688	9129.401367
1440.759766	9063.438477
1438.962891	9284.198242
1437.166016	9133.351563
1435.369141	9006.216797
1433.572266	9066.897461
1431.773438	9131.723633
1429.976563	9158.983398
1428.177734	9138.972656
1426.378906	9071.719727
1424.578125	8990.601563
1422.779297	8948.409180
1420.978516	9156.214844
1419.177734	9080.679688
1417.376953	9088.466797
1415.576172	9105.964844
1413.775391	9181.733398
1411.972656	9023.013672
1410.169922	8922.615234
1408.367188	8826.417969
1406.564453	8855.038086
1404.759766	9126.215820
1402.957031	9049.435547
1401.152344	8957.445313
1399.347656	8968.000000
1397.542969	8866.369141
1395.736328	8878.321289
1393.931641	9007.937500
1392.125000	8911.895508
1390.318359	8698.275391
1388.511719	8856.895508
1386.703125	8950.437500
1384.894531	8955.434570
1383.087891	8900.978516
1381.279297	8751.167969
1379.468750	8727.179688
1377.660156	8944.995117
1375.849609	8965.177734
1374.041016	8753.328125
1372.230469	8721.070313
1370.417969	8746.806641
1368.607422	8962.998047
1366.794922	8755.465820
1364.984375	8727.370117
1363.171875	8550.320313
1361.357422	8654.664063
1359.544922	8727.250977
1357.730469	8781.885742
1355.917969	8744.162109
1354.103516	8498.403320
1352.287109	8716.974609
1350.472656	8786.709961
1348.656250	8791.698242
1346.841797	8627.357422
1345.025391	8680.547852
1343.207031	8713.073242
1341.390625	8884.533203
1339.572266	8630.906250
1337.755859	8572.658203
1335.937500	9035.502930
1334.117188	8666.541992
1332.298828	8819.956055
1330.478516	8742.478516
1328.658203	8409.532227
1326.837891	8481.871094
1325.017578	8559.669922
1323.197266	8725.290039
1321.375000	8542.231445
1319.552734	8370.228516
1317.730469	8476.789063
1315.908203	8562.728516
1314.085938	8606.120117
1312.261719	8449.329102
1310.437500	8500.948242
1308.613281	8522.396484
1306.789063	8610.967773
1304.962891	8429.651367
1303.138672	8429.185547
1301.312500	8334.245117
1299.486328	8409.086914
1297.660156	8478.420898
1295.832031	8476.573242
1294.003906	8489.772461
1292.177734	8456.462891
1290.347656	8371.207031
1288.519531	8396.721680
1286.691406	8385.320313
1284.861328	8306.964844
1283.031250	8148.036133
1281.201172	8338.847656
1279.371094	8386.186523
1277.539063	8361.141602
1275.707031	8170.941406
1273.875000	8291.977539
1272.042969	8228.763672
1270.210938	8385.198242
1268.376953	8422.912109
1266.544922	8318.802734
1264.710938	8221.554688
1262.876953	8289.260742
1261.041016	8316.057617
1259.207031	8479.073242
1257.371094	8257.927734
1255.535156	8267.008789
1253.699219	8144.026367
1251.861328	8361.377930
1250.025391	8333.685547
1248.187500	8157.706543
1246.349609	8143.670898
1244.511719	8207.156250
1242.671875	8191.754883
1240.833984	8150.531738
1238.994141	8148.737305
1237.154297	8131.997070
1235.312500	8400.534180
1233.472656	8189.530762
1231.630859	8208.093750
1229.789063	8101.754395
1227.947266	8230.261719
1226.105469	8243.373047
1224.261719	8237.484375
1222.419922	8105.458496
1220.576172	8145.706055
1218.732422	8134.416992
1216.886719	8274.941406
1215.042969	8212.131836
1213.197266	8070.768555
1211.351563	8215.274414
1209.505859	8217.520508
1207.658203	8246.843750
1205.812500	8165.154297
1203.964844	7941.399414
1202.117188	8097.946777
1200.269531	8134.030273
1198.419922	8216.080078
1196.572266	8024.959961
1194.722656	7948.830078
1192.873047	8044.379395
1191.021484	8043.946777
1189.171875	7936.789063
1187.320313	7999.858887
1185.468750	7933.267090
1183.617188	8021.958984
1181.765625	8090.364746
1179.912109	8103.411621
1178.060547	8003.124023
1176.207031	8070.136719
1174.353516	8120.936035
1172.498047	8213.507813
1170.644531	7990.618164
1168.789063	7813.646484
1166.933594	7863.107422
1165.078125	7824.986816
1163.220703	8072.393066
1161.363281	7966.918945
1159.507813	7783.414551
1157.648438	7862.431641
1155.791016	7907.773438
1153.933594	7998.832520
1152.074219	7736.129395
1150.214844	7660.448730
1148.355469	8076.831543
1146.496094	7972.881836
1144.634766	7885.102539
1142.773438	7890.059570
1140.912109	7960.827637
1139.050781	7916.078125
1137.189453	7808.248535
1135.326172	8010.524902
1133.462891	7866.488281
1131.599609	7841.921387
1129.736328	7951.499023
1127.871094	7851.824219
1126.007813	7809.844727
1124.142578	7608.370605
1122.277344	7831.812012
1120.410156	7637.120605
1118.544922	7719.801270
1116.677734	7837.264648
1114.810547	7784.628906
1112.943359	7821.704590
1111.074219	7853.409668
1109.207031	8063.059570
1107.337891	7708.086426
1105.468750	7832.077148
1103.599609	7700.616211
1101.728516	7900.751465
1099.859375	7876.256348
1097.988281	7859.789063
1096.115234	7769.851074
1094.244141	7730.707520
1092.373047	7877.193359
1090.500000	7884.768066
1088.626953	7849.626465
1086.753906	7642.356934
1084.878906	7903.464355
1083.005859	7798.979980
1081.130859	7793.224121
1079.255859	7663.478516
1077.378906	7672.416992
1075.503906	7614.717773
1073.626953	7795.533691
1071.750000	7575.322266
1069.873047	7714.779785
1067.996094	7820.887207
1066.117188	7833.766602
1064.238281	7843.977539
1062.359375	7790.316895
1060.480469	7557.097656
1058.601563	7733.604004
1056.720703	7725.209961
1054.839844	7598.507813
1052.958984	7535.656250
1051.078125	7512.693848
1049.195313	7647.825684
1047.312500	7646.097656
1045.429688	7527.519531
1043.546875	7659.898926
1041.664063	7753.727539
1039.779297	7693.588379
1037.894531	7698.480957
1036.009766	7666.232910
1034.125000	7716.213379
1032.240234	7763.518555
1030.353516	7796.221680
1028.466797	7487.023926
1026.580078	7578.066406
1024.691406	7654.497070
1022.804688	7660.707520
1020.916016	7776.800781
1019.027344	7650.615723
1017.138672	7562.863281
1015.248047	8283.525391
1013.357422	7797.524414
1011.468750	7586.809570
1009.576172	7448.907227
1007.685547	7527.847656
1005.792969	7655.648438
1003.902344	7583.883789
1002.009766	7607.258301
1000.115234	7605.529297
998.222656	7651.332520
996.328125	7594.151367
994.433594	7650.492188
992.539063	7510.211426
990.644531	7549.395508
988.748047	7659.778320
986.853516	7720.005859
984.957031	7537.649902
983.058594	7564.927734
981.162109	7524.993164
979.263672	7781.475586
977.365234	7471.517090
975.466797	7561.985352
973.568359	7346.999512
971.667969	7470.356445
969.769531	7688.395996
967.869141	7639.282715
965.968750	7504.701172
964.066406	7470.114746
962.164063	7540.713867
960.263672	7577.107422
958.359375	7743.572754
956.457031	7540.803223
954.554688	7598.184082
952.650391	7692.305664
950.746094	7680.044434
948.841797	7466.971191
946.935547	7588.612793
945.029297	7561.950195
943.125000	7704.499023
941.216797	7679.131836
939.310547	7529.227539
937.404297	7558.960938
935.496094	7571.644531
933.587891	7436.276855
931.679688	7528.880371
929.769531	7558.583496
927.859375	7440.329590
925.951172	7577.370117
924.039063	7562.545898
922.128906	7382.878906
920.216797	7565.616211
918.306641	7494.570313
916.394531	7347.726074
914.480469	7442.766113
912.568359	7527.307129
910.654297	7551.708496
908.740234	7679.289551
906.826172	7648.794434
904.912109	7530.835449
902.996094	7480.807129
901.080078	7489.526855
899.164063	7534.773926
897.248047	7487.385742
895.332031	7578.255371
893.414063	7656.043945
891.496094	7453.538574
889.578125	7661.640625
887.658203	7537.401367
885.740234	7441.875977
883.820313	7580.811523
881.900391	7615.520508
879.978516	7514.833984
878.058594	7342.614746
876.136719	7247.240234
874.214844	7349.633789
872.292969	7583.331543
870.369141	7575.080078
868.447266	7401.741699
866.523438	7331.152344
864.599609	7498.370117
862.673828	7452.471191
860.750000	7365.033203
858.824219	7345.152832
856.898438	7294.125977
854.972656	7461.155273
853.044922	7428.288574
851.117188	7474.566895
849.189453	7490.993652
847.261719	7525.564941
845.333984	7578.267578
843.404297	7391.181641
841.474609	7265.080566
839.544922	7455.118652
837.615234	7531.097656
835.683594	7332.539551
833.753906	7359.318848
831.822266	7330.433105
829.888672	7478.826172
827.957031	7465.448242
826.023438	7401.636230
824.089844	7324.922852
822.156250	7413.711426
820.222656	7483.072266
818.287109	7540.770508
816.351563	7539.018066
814.416016	7386.158203
812.480469	7489.028809
810.542969	7449.850586
808.605469	7522.972656
806.667969	7375.416992
804.730469	7398.210449
802.792969	7539.645508
800.853516	7414.106445
798.914063	7497.460449
796.974609	7473.803711
795.033203	7368.981445
793.093750	7431.673828
791.152344	7611.535645
789.210938	7433.357910
787.269531	7497.276367
785.326172	7526.415039
783.382813	7681.636230
781.439453	7634.818359
779.496094	7504.424805
777.550781	7626.108887
775.607422	7570.335938
773.662109	7474.746582
771.716797	7411.323242
769.769531	7535.481445
767.824219	7407.856934
765.876953	7449.779785
763.929688	7532.760254
761.980469	7419.340820
760.033203	7524.100586
758.083984	7589.043945
756.134766	7662.933105
754.183594	7488.040527
752.234375	7558.071289
750.283203	7693.430176
748.332031	7691.625488
746.380859	7785.895508
744.429688	7461.333008
742.476563	7496.712891
740.523438	7423.267090
738.570313	7401.046875
736.615234	7321.258789
734.662109	7551.072266
732.707031	7445.706543
730.751953	7443.956055
728.794922	7368.063965
726.839844	7445.565918
724.882813	7446.369141
722.925781	7509.762695
720.968750	7599.944824
719.009766	7535.591797
717.050781	7335.961426
715.091797	7472.060059
713.132813	7692.302246
711.173828	7559.103516
709.212891	7410.663086
707.251953	7425.488770
705.291016	7478.547852
703.330078	7406.690918
701.367188	7453.356934
699.404297	7342.051270
697.441406	7540.251953
695.478516	7567.752930
693.513672	7480.680664
691.548828	7510.725586
689.583984	7475.869629
687.619141	7382.518555
685.652344	7533.371094
683.685547	7596.427246
681.718750	7523.447754
679.751953	7483.541992
677.785156	7326.771484
675.816406	7352.978027
673.847656	7459.172363
671.878906	7391.385742
669.908203	7360.438477
667.937500	7273.670898
665.966797	7296.048340
663.996094	7397.052246
662.025391	7430.799805
660.052734	7358.039551
658.080078	7311.929199
656.107422	7313.991699
654.134766	7343.922852
652.160156	7427.033691
650.185547	7335.361816
648.210938	7286.775391
646.236328	7128.099609
644.259766	7321.263672
642.283203	7353.674316
640.306641	7284.889648
638.330078	7295.796387
636.353516	7334.507813
634.375000	7332.756836
632.396484	7312.053223
630.416016	7130.928223
628.437500	7275.724121
626.457031	7392.671875
624.476563	7346.723145
622.496094	7368.944336
620.513672	7295.263184
618.533203	7264.504395
616.550781	7228.715332
614.568359	7383.324707
612.583984	7346.261719
610.599609	7276.449707
608.615234	7328.880859
606.630859	7211.239746
604.646484	7232.177246
602.660156	7264.434570
600.673828	7236.257813
598.687500	7232.002930
596.701172	7334.687012
594.712891	7387.009277
592.724609	7267.029297
590.736328	7267.795898
588.746094	7218.286133
586.757813	7362.312012
584.767578	7211.042480
582.777344	7259.544434
580.785156	7297.977051
578.794922	7276.131836
576.802734	7237.980469
574.810547	7276.387207
572.818359	7383.769531
570.824219	7252.809082
568.830078	7330.050293
566.835938	7416.028809
564.841797	7283.898438
562.845703	7258.331543
560.849609	7246.554688
558.853516	7406.354004
556.857422	7125.356445
554.859375	7404.020508
552.861328	7327.141113
550.863281	7214.015137
548.865234	7339.851074
546.865234	7458.121582
544.867188	7405.053223
542.867188	7305.762695
540.865234	7303.988770
538.865234	7262.237305
536.863281	7271.713867
534.861328	7344.868652
532.857422	7316.866211
530.855469	7273.899414
528.851563	7322.041016
526.847656	7206.736816
524.843750	7145.117188
522.837891	7291.754883
520.832031	7126.676270
518.826172	7309.386719
516.820313	7383.607422
514.812500	7355.646973
512.806641	7317.735840
510.796875	7287.312012
508.789063	7209.601563
506.781250	7329.794922
504.771484	7249.621582
502.761719	7326.209961
500.750000	7314.468750
498.740234	7420.838867
496.728516	7338.230957
494.716797	7332.704590
492.705078	7422.838379
490.691406	7306.752441
488.677734	7365.803223
486.664063	7409.927246
484.650391	7338.605957
482.634766	7276.003906
480.619141	7208.469727
478.603516	7284.828613
476.587891	7289.235840
474.570313	7349.420410
472.552734	7378.592285
470.535156	7360.668457
468.517578	7176.771973
466.498047	7244.350098
464.478516	7314.369629
462.458984	7284.096680
460.439453	7445.639648
458.417969	7247.097168
456.396484	7449.381836
454.375000	7249.697754
452.353516	7219.471680
450.330078	7389.476074
448.306641	7605.112305
446.283203	7354.934570
444.257813	7307.417480
442.234375	7313.014160
440.208984	7344.528320
438.181641	7484.623535
436.156250	7599.973145
434.128906	7916.316895
432.101563	7865.023438
430.074219	8102.239746
428.044922	8171.711426
426.017578	8323.707031
423.988281	8430.043945
421.957031	8281.381836
419.927734	8104.471680
417.896484	8104.913086
415.865234	8225.960938
413.833984	8399.853516
411.800781	8779.081055
409.767578	9044.977539
407.734375	10344.720703
405.701172	11938.810547
403.666016	12297.105469
401.630859	10989.314453
399.595703	10290.153320
397.560547	10460.712891
395.523438	11082.948242
393.486328	12080.427734
391.449219	13137.527344
389.410156	13083.934570
387.373047	11589.360352
385.333984	10041.587891
383.294922	9165.088867
381.253906	8466.719727
379.212891	8274.690430
377.171875	8344.872070
375.130859	8978.303711
373.087891	10366.763672
371.046875	13846.198242
369.001953	17568.597656
366.958984	17397.792969
364.916016	15000.000977
362.871094	12542.284180
360.824219	10945.136719
358.779297	10002.599609
356.732422	9430.728516
354.685547	9375.817383
352.638672	9187.828125
350.591797	9335.660156
348.542969	9377.230469
346.494141	9215.001953
344.445313	9370.028320
342.394531	9213.979492
340.343750	9443.298828
338.292969	9859.001953
336.242188	10320.799805
334.189453	10353.502930
332.138672	10039.046875
330.083984	9735.708984
328.031250	9191.476563
325.976563	9120.971680
323.921875	8644.092773
321.867188	8290.321289
319.812500	8154.421875
317.755859	8204.617188
315.699219	8209.810547
313.642578	7984.104004
311.583984	8061.027832
309.525391	8033.453613
307.466797	7858.960938
305.408203	7762.251953
303.347656	7539.368652
301.287109	7522.870117
299.226563	7439.660645
297.166016	7717.889160
295.103516	7748.637695
293.041016	7719.974121
290.978516	7688.900879
288.914063	7742.645996
286.849609	7912.634766
284.785156	7906.958496
282.720703	7831.071289
280.654297	7871.404785
278.587891	7758.054688
276.521484	7731.853516
274.453125	7675.432129
272.386719	7777.415527
270.318359	7793.528320
268.248047	7872.465332
266.179688	7964.648438
264.109375	7956.540039
262.039063	8075.213379
259.968750	8361.610352
257.896484	8518.729492
255.824219	8832.606445
253.751953	9209.039063
251.677734	9795.089844
249.603516	10743.697266
247.529297	11964.186523
245.455078	14609.433594
243.378906	18743.369141
241.304688	24981.406250
239.226563	30602.156250
237.150391	31477.611328
235.072266	26702.986328
232.994141	20105.896484
230.916016	14719.766602
228.835938	11738.812500
226.757813	9900.178711
224.675781	8859.266602
222.595703	8597.426758
220.513672	8242.035156
218.431641	7968.482422
216.349609	7716.681152
214.267578	7690.641602
212.183594	7646.616211
210.099609	7452.670898
208.013672	7448.301270
205.929688	7307.258789
203.843750	7269.366699
201.757813	7437.593262
199.669922	7314.628906
197.582031	7166.578125
195.494141	7212.567383
193.406250	7275.288086
191.316406	7181.209961
189.226563	7162.550293
187.136719	7265.894043
185.046875	7196.998535
182.955078	7282.343262
180.863281	7104.724121
178.769531	7338.194336
176.677734	7114.068359
174.583984	7411.889648
172.490234	7200.991699
170.394531	7261.124512
168.298828	7439.346191
166.203125	7609.120117
164.107422	7760.913086
162.009766	7770.751465
159.912109	8030.876465
157.814453	8532.746094
155.716797	10512.668945
153.617188	13605.029297
151.517578	14163.324219
149.416016	12960.898438
147.316406	12031.616211
145.214844	11140.901367
143.113281	9870.085938
141.009766	8519.103516
138.906250	7857.086914
136.802734	7776.527832
134.699219	7520.183105
132.593750	7761.621582
130.488281	7657.399902
128.382813	7682.622070
126.275391	7908.385742
124.167969	8495.879883
122.060547	8882.602539
119.951172	9067.532227
117.843750	8491.306641
115.734375	7687.850586
113.623047	7133.637207
111.513672	7041.667969
109.402344	6796.991699
107.289063	6778.557617
105.177734	6564.854492
103.064453	6496.796875
100.951172	6625.127441
98.835938	6547.626953
96.722656	6478.442383
94.607422	6557.027832
92.490234	6611.937012
90.375000	6515.618164
88.257813	6496.108398
86.140625	6496.677246
84.021484	6290.701172
81.902344	6559.164063
79.783203	6357.999023
77.664063	6375.107422
75.542969	6429.930664
73.421875	6393.968750
71.300781	6328.567383
69.177734	6404.555176
67.054688	6538.203125
64.931641	6408.058594
62.806641	6438.053223
60.683594	6423.316895
58.556641	6455.639160
56.431641	6389.158691
54.304688	6400.306641
52.177734	6332.699219
50.050781	6433.153320
47.921875	6380.841309
45.792969	6332.079590
43.664063	6312.693848
41.533203	6481.107422
39.402344	6459.339844
37.271484	6513.829590
35.140625	6480.333984
33.007813	6436.304199
