#Wave		#Intensity
1945.189453	11119.085938
1943.490234	11173.504883
1941.789063	11380.497070
1940.089844	11550.662109
1938.388672	11492.908203
1936.687500	11538.057617
1934.986328	11345.117188
1933.285156	11315.333984
1931.583984	11536.771484
1929.880859	11549.556641
1928.179688	11437.502930
1926.476563	11412.116211
1924.773438	11348.563477
1923.070313	11202.827148
1921.367188	11692.622070
1919.664063	11517.523438
1917.958984	11511.201172
1916.255859	11472.606445
1914.550781	11400.289063
1912.845703	11461.435547
1911.140625	11628.121094
1909.435547	11602.713867
1907.730469	11479.112305
1906.023438	11411.234375
1904.316406	11289.165039
1902.611328	11196.432617
1900.904297	11453.787109
1899.197266	11312.726563
1897.488281	11217.099609
1895.781250	11478.702148
1894.074219	11349.409180
1892.365234	11442.598633
1890.656250	11556.239258
1888.947266	11266.066406
1887.238281	11066.676758
1885.529297	11430.390625
1883.818359	11387.489258
1882.109375	11426.467773
1880.398438	11276.873047
1878.687500	11329.003906
1876.976563	11294.904297
1875.265625	11189.228516
1873.554688	11162.462891
1871.841797	11195.580078
1870.130859	11269.568359
1868.417969	11137.680664
1866.705078	11144.502930
1864.992188	11103.159180
1863.279297	11196.069336
1861.564453	10949.021484
1859.851563	11022.958984
1858.136719	11263.123047
1856.421875	11373.426758
1854.707031	11216.897461
1852.992188	11053.132813
1851.277344	11159.034180
1849.562500	11210.983398
1847.845703	11179.871094
1846.128906	11043.891602
1844.412109	11011.357422
1842.695313	11165.209961
1840.978516	11142.851563
1839.261719	10992.409180
1837.542969	10906.049805
1835.824219	11214.036133
1834.105469	11139.301758
1832.386719	11042.772461
1830.667969	11116.424805
1828.949219	11121.709961
1827.228516	11087.739258
1825.509766	10949.126953
1823.789063	11027.091797
1822.068359	11062.890625
1820.347656	11107.390625
1818.626953	10951.434570
1816.904297	10889.922852
1815.183594	10813.912109
1813.460938	10978.902344
1811.738281	11212.044922
1810.015625	10792.090820
1808.292969	10772.726563
1806.568359	10876.667969
1804.845703	10893.548828
1803.121094	10911.871094
1801.396484	10875.091797
1799.671875	10758.596680
1797.947266	10831.999023
1796.222656	10882.187500
1794.496094	11029.422852
1792.769531	10894.144531
1791.044922	10764.706055
1789.318359	10846.714844
1787.589844	10559.528320
1785.863281	11353.678711
1784.136719	12179.372070
1782.408203	12298.670898
1780.679688	11632.399414
1778.951172	11732.946289
1777.222656	10854.442383
1775.494141	10642.791016
1773.763672	10736.229492
1772.035156	10961.154297
1770.304688	10844.964844
1768.574219	10780.828125
1766.843750	10739.824219
1765.111328	10580.406250
1763.380859	10452.813477
1761.648438	10560.585938
1759.917969	10669.760742
1758.185547	10739.926758
1756.453125	10623.931641
1754.718750	10691.190430
1752.986328	10650.246094
1751.251953	10739.100586
1749.517578	10579.929688
1747.785156	10601.007813
1746.048828	10407.328125
1744.314453	10565.320313
1742.580078	10684.350586
1740.843750	10417.294922
1739.107422	10687.522461
1737.371094	10455.120117
1735.634766	10591.348633
1733.898438	10471.317383
1732.160156	10489.481445
1730.423828	10500.443359
1728.685547	10507.082031
1726.947266	10490.704102
1725.208984	10478.644531
1723.470703	10554.288086
1721.730469	10445.907227
1719.992188	10590.507813
1718.251953	10342.778320
1716.511719	10320.691406
1714.771484	10427.881836
1713.029297	10625.500977
1711.289063	10402.354492
1709.546875	10314.230469
1707.804688	10326.604492
1706.062500	10311.708008
1704.320313	10256.643555
1702.578125	10649.136719
1700.833984	10344.483398
1699.091797	10579.079102
1697.347656	10405.008789
1695.603516	10428.800781
1693.857422	10251.957031
1692.113281	10361.731445
1690.369141	10269.480469
1688.623047	10334.806641
1686.876953	10450.222656
1685.130859	10512.620117
1683.384766	10416.109375
1681.636719	10229.475586
1679.890625	10453.556641
1678.142578	10338.509766
1676.394531	10124.818359
1674.646484	10287.293945
1672.896484	10298.155273
1671.148438	10357.610352
1669.398438	10315.571289
1667.650391	10084.936523
1665.900391	10278.679688
1664.148438	10168.116211
1662.398438	10187.543945
1660.648438	10355.448242
1658.896484	10117.884766
1657.144531	10068.799805
1655.392578	10179.546875
1653.640625	10032.028320
1651.886719	10269.679688
1650.134766	10396.002930
1648.380859	10354.031250
1646.626953	10175.226563
1644.873047	10183.193359
1643.119141	10376.398438
1641.363281	10087.990234
1639.609375	10158.637695
1637.853516	10009.944336
1636.097656	10100.507813
1634.341797	10319.151367
1632.583984	10169.085938
1630.828125	10024.770508
1629.070313	9849.210938
1627.312500	10116.084961
1625.554688	9984.659180
1623.796875	10032.434570
1622.037109	10078.767578
1620.279297	9842.249023
1618.519531	10140.111328
1616.759766	9947.711914
1615.000000	10022.425781
1613.238281	10034.623047
1611.478516	9936.064453
1609.716797	10054.737305
1607.955078	10159.167969
1606.193359	10120.236328
1604.431641	10047.269531
1602.669922	9998.444336
1600.906250	10074.431641
1599.142578	10015.691406
1597.378906	9932.875000
1595.615234	9854.341797
1593.851563	9890.614258
1592.085938	10116.709961
1590.322266	10039.598633
1588.556641	10064.477539
1586.791016	9902.453125
1585.025391	9807.024414
1583.257813	9817.777344
1581.492188	9924.744141
1579.724609	10030.250977
1577.957031	9963.155273
1576.189453	9990.831055
1574.419922	9919.525391
1572.652344	10091.377930
1570.882813	10007.357422
1569.113281	9955.868164
1567.343750	9797.034180
1565.574219	9886.845703
1563.802734	9935.667969
1562.033203	9970.349609
1560.261719	9851.158203
1558.490234	9688.264648
1556.718750	9713.094727
1554.947266	9993.246094
1553.173828	9991.202148
1551.400391	9694.447266
1549.626953	9754.495117
1547.853516	9784.916016
1546.080078	9811.094727
1544.304688	9772.450195
1542.531250	9709.873047
1540.755859	9698.021484
1538.980469	9565.077148
1537.205078	9574.374023
1535.427734	9791.974609
1533.652344	9668.939453
1531.875000	9450.283203
1530.097656	9625.572266
1528.320313	9802.193359
1526.541016	9786.110352
1524.763672	9869.842773
1522.984375	9666.822266
1521.205078	9555.221680
1519.425781	9550.436523
1517.646484	9659.424805
1515.865234	9803.473633
1514.085938	9620.326172
1512.304688	9440.059570
1510.523438	9621.953125
1508.740234	9518.931641
1506.958984	9399.116211
1505.175781	9550.044922
1503.394531	9412.041016
1501.611328	9568.507813
1499.826172	9572.125000
1498.042969	9643.006836
1496.259766	9512.097656
1494.474609	9547.938477
1492.689453	9529.142578
1490.904297	9521.555664
1489.117188	9369.776367
1487.332031	9457.397461
1485.544922	9330.880859
1483.757813	9426.866211
1481.970703	9582.956055
1480.183594	9415.932617
1478.394531	9341.256836
1476.607422	9389.625000
1474.818359	9516.238281
1473.029297	9401.062500
1471.240234	9597.466797
1469.449219	9330.078125
1467.658203	9607.405273
1465.869141	9386.195313
1464.078125	9447.036133
1462.285156	9344.572266
1460.494141	9256.101563
1458.701172	9329.482422
1456.910156	9422.356445
1455.117188	9328.343750
1453.324219	9202.305664
1451.529297	9183.641602
1449.736328	9329.415039
1447.941406	9353.917969
1446.146484	9285.083984
1444.351563	9228.812500
1442.554688	9264.455078
1440.759766	9254.145508
1438.962891	9348.217773
1437.166016	9298.931641
1435.369141	9313.657227
1433.572266	9307.513672
1431.773438	9248.529297
1429.976563	9320.252930
1428.177734	9234.879883
1426.378906	9120.358398
1424.578125	8973.928711
1422.779297	9115.098633
1420.978516	9347.866211
1419.177734	9309.779297
1417.376953	9196.746094
1415.576172	9232.262695
1413.775391	9258.050781
1411.972656	9197.813477
1410.169922	9125.118164
1408.367188	9053.838867
1406.564453	8974.270508
1404.759766	9110.968750
1402.957031	9222.663086
1401.152344	9151.418945
1399.347656	9089.900391
1397.542969	9096.269531
1395.736328	9056.940430
1393.931641	9122.837891
1392.125000	8976.946289
1390.318359	8909.989258
1388.511719	8973.105469
1386.703125	9080.454102
1384.894531	9074.361328
1383.087891	8975.636719
1381.279297	8922.569336
1379.468750	8941.385742
1377.660156	9047.239258
1375.849609	9260.793945
1374.041016	9077.882813
1372.230469	8939.235352
1370.417969	8944.217773
1368.607422	9236.277344
1366.794922	8962.451172
1364.984375	9073.651367
1363.171875	8889.629883
1361.357422	8974.594727
1359.544922	8979.555664
1357.730469	9050.676758
1355.917969	8774.481445
1354.103516	8758.811523
1352.287109	8896.052734
1350.472656	8892.755859
1348.656250	8951.421875
1346.841797	8716.838867
1345.025391	8917.277344
1343.207031	8969.016602
1341.390625	8949.193359
1339.572266	8859.229492
1337.755859	8862.814453
1335.937500	9291.224609
1334.117188	9077.532227
1332.298828	9074.192383
1330.478516	8923.839844
1328.658203	8658.164063
1326.837891	8660.408203
1325.017578	8677.752930
1323.197266	8847.465820
1321.375000	8582.033203
1319.552734	8604.869141
1317.730469	8576.935547
1315.908203	8723.202148
1314.085938	8807.697266
1312.261719	8665.943359
1310.437500	8639.386719
1308.613281	8678.619141
1306.789063	8821.959961
1304.962891	8715.936523
1303.138672	8549.700195
1301.312500	8473.902344
1299.486328	8629.478516
1297.660156	8697.395508
1295.832031	8690.026367
1294.003906	8733.275391
1292.177734	8757.356445
1290.347656	8509.313477
1288.519531	8631.862305
1286.691406	8619.042969
1284.861328	8581.631836
1283.031250	8402.149414
1281.201172	8342.945313
1279.371094	8488.606445
1277.539063	8590.513672
1275.707031	8559.968750
1273.875000	8618.142578
1272.042969	8414.323242
1270.210938	8585.722656
1268.376953	8548.382813
1266.544922	8607.868164
1264.710938	8465.570313
1262.876953	8522.319336
1261.041016	8519.087891
1259.207031	8684.784180
1257.371094	8458.144531
1255.535156	8404.541992
1253.699219	8484.381836
1251.861328	8432.156250
1250.025391	8347.293945
1248.187500	8386.274414
1246.349609	8377.629883
1244.511719	8571.617188
1242.671875	8543.898438
1240.833984	8472.692383
1238.994141	8374.335938
1237.154297	8318.143555
1235.312500	8467.096680
1233.472656	8432.636719
1231.630859	8403.621094
1229.789063	8378.690430
1227.947266	8412.131836
1226.105469	8383.137695
1224.261719	8365.007813
1222.419922	8439.117188
1220.576172	8361.315430
1218.732422	8354.046875
1216.886719	8447.082031
1215.042969	8480.449219
1213.197266	8267.219727
1211.351563	8268.101563
1209.505859	8357.006836
1207.658203	8546.064453
1205.812500	8429.114258
1203.964844	8256.727539
1202.117188	8369.908203
1200.269531	8411.342773
1198.419922	8397.307617
1196.572266	8250.767578
1194.722656	8111.051270
1192.873047	8249.813477
1191.021484	8261.497070
1189.171875	8205.626953
1187.320313	8090.352051
1185.468750	8084.505859
1183.617188	8263.617188
1181.765625	8385.958984
1179.912109	8228.910156
1178.060547	8138.038574
1176.207031	8095.764648
1174.353516	8200.500000
1172.498047	8406.306641
1170.644531	8235.944336
1168.789063	8081.828125
1166.933594	8206.680664
1165.078125	7997.408691
1163.220703	8229.961914
1161.363281	8112.334961
1159.507813	8021.682617
1157.648438	8050.849609
1155.791016	8078.657715
1153.933594	8127.976074
1152.074219	7935.181641
1150.214844	7971.062012
1148.355469	8274.450195
1146.496094	8174.488770
1144.634766	8175.351563
1142.773438	8193.678711
1140.912109	8207.966797
1139.050781	8164.504883
1137.189453	8137.172363
1135.326172	8242.733398
1133.462891	8161.716309
1131.599609	8135.741699
1129.736328	8222.451172
1127.871094	8078.460938
1126.007813	8008.275391
1124.142578	7786.649902
1122.277344	8105.201660
1120.410156	7984.140625
1118.544922	8073.441406
1116.677734	8063.597168
1114.810547	7982.792480
1112.943359	8038.564941
1111.074219	8129.108887
1109.207031	8243.696289
1107.337891	8114.761230
1105.468750	8044.730957
1103.599609	7950.662598
1101.728516	8124.004395
1099.859375	8047.333984
1097.988281	8066.906738
1096.115234	7963.562988
1094.244141	7923.040039
1092.373047	8140.255859
1090.500000	8026.282715
1088.626953	8015.134766
1086.753906	8007.994629
1084.878906	8078.236816
1083.005859	8051.076172
1081.130859	8019.926758
1079.255859	7820.801270
1077.378906	8008.318359
1075.503906	7961.205078
1073.626953	8007.375977
1071.750000	8020.224121
1069.873047	7941.175781
1067.996094	8125.787598
1066.117188	8151.909180
1064.238281	7951.775391
1062.359375	7936.676270
1060.480469	7918.922852
1058.601563	8043.479980
1056.720703	8193.243164
1054.839844	7926.854980
1052.958984	7833.360840
1051.078125	7795.715332
1049.195313	8027.759277
1047.312500	7934.303711
1045.429688	7890.019531
1043.546875	7967.887695
1041.664063	7936.886719
1039.779297	8042.573242
1037.894531	7885.537109
1036.009766	7923.542480
1034.125000	7863.403320
1032.240234	7856.320313
1030.353516	7911.534668
1028.466797	7809.032227
1026.580078	7799.314453
1024.691406	7904.834473
1022.804688	8057.978027
1020.916016	7950.236328
1019.027344	7841.219238
1017.138672	7857.967285
1015.248047	8552.101563
1013.357422	8064.716797
1011.468750	7834.104980
1009.576172	7726.555664
1007.685547	7927.041992
1005.792969	7855.200195
1003.902344	7865.306641
1002.009766	7827.854492
1000.115234	7826.075195
998.222656	7821.655273
996.328125	7831.757324
994.433594	7845.812500
992.539063	7772.778320
990.644531	7760.457031
988.748047	7848.371094
986.853516	8011.401367
984.957031	7902.800293
983.058594	7844.329590
981.162109	7731.861328
979.263672	8156.915039
977.365234	7775.751465
975.466797	7812.164063
973.568359	7618.184082
971.667969	7700.679199
969.769531	7963.404297
967.869141	8006.315430
965.968750	7801.942871
964.066406	7787.012695
962.164063	7839.134766
960.263672	7809.743652
958.359375	7998.494141
956.457031	7871.862793
954.554688	7884.511719
952.650391	7832.810547
950.746094	7817.891602
948.841797	7813.478516
946.935547	7984.905762
945.029297	7796.785156
943.125000	7915.670898
941.216797	7888.943848
939.310547	7756.035156
937.404297	7859.117188
935.496094	7922.838867
933.587891	7808.353027
931.679688	7792.155762
929.769531	7768.107910
927.859375	7624.930664
925.951172	7861.406738
924.039063	7830.813965
922.128906	7808.084473
920.216797	7838.993652
918.306641	7732.576660
916.394531	7660.200195
914.480469	7681.969727
912.568359	7660.603027
910.654297	7675.828125
908.740234	7934.002930
906.826172	7997.476074
904.912109	7842.879395
902.996094	7751.008789
901.080078	7747.921387
899.164063	7924.886230
897.248047	7825.230957
895.332031	7852.121094
893.414063	7862.047852
891.496094	7771.598145
889.578125	7904.040039
887.658203	7829.255859
885.740234	7671.137207
883.820313	7794.392090
881.900391	7831.656250
879.978516	7785.591797
878.058594	7811.125977
876.136719	7566.014648
874.214844	7707.359375
872.292969	7860.342285
870.369141	7891.033203
868.447266	7664.325195
866.523438	7756.127930
864.599609	7842.689941
862.673828	7822.691406
860.750000	7697.505371
858.824219	7756.751465
856.898438	7634.232910
854.972656	7815.459473
853.044922	7670.924316
851.117188	7737.901855
849.189453	7723.142090
847.261719	7835.456055
845.333984	7781.789063
843.404297	7686.673828
841.474609	7616.219727
839.544922	7725.860840
837.615234	7832.859863
835.683594	7675.666016
833.753906	7714.015625
831.822266	7665.634766
829.888672	7728.551758
827.957031	7717.703125
826.023438	7743.071289
824.089844	7707.654785
822.156250	7817.038086
820.222656	7833.315918
818.287109	7768.182129
816.351563	7697.910645
814.416016	7672.874023
812.480469	7752.436035
810.542969	7782.905762
808.605469	7747.539063
806.667969	7634.769531
804.730469	7687.172852
802.792969	7776.952148
800.853516	7768.694336
798.914063	7801.690430
796.974609	7660.681152
795.033203	7703.993652
793.093750	7681.585938
791.152344	7988.892578
789.210938	7809.339355
787.269531	7808.804688
785.326172	7890.637695
783.382813	8089.521973
781.439453	7966.711426
779.496094	7802.801270
777.550781	7793.263672
775.607422	7832.578613
773.662109	7905.289551
771.716797	7760.816895
769.769531	7873.332031
767.824219	7590.228027
765.876953	7781.052246
763.929688	7742.003418
761.980469	7840.296387
760.033203	7767.889648
758.083984	7970.035645
756.134766	7910.455566
754.183594	7812.436523
752.234375	7851.625977
750.283203	8011.266113
748.332031	7964.541504
746.380859	7928.085938
744.429688	7722.594727
742.476563	7778.399902
740.523438	7695.927246
738.570313	7882.249512
736.615234	7632.175781
734.662109	7832.494629
732.707031	7751.361816
730.751953	7818.583008
728.794922	7763.055664
726.839844	7881.360352
724.882813	7770.901855
722.925781	7896.811523
720.968750	7880.903809
719.009766	7857.342285
717.050781	7633.382324
715.091797	7868.953613
713.132813	7921.961426
711.173828	7862.691895
709.212891	7635.112305
707.251953	7768.458984
705.291016	7724.561035
703.330078	7829.785156
701.367188	7594.779297
699.404297	7614.639648
697.441406	7898.098633
695.478516	7856.763672
693.513672	7784.897461
691.548828	7753.787109
689.583984	7646.354004
687.619141	7709.415039
685.652344	7772.445313
683.685547	7743.905762
681.718750	7747.155762
679.751953	7792.338379
677.785156	7740.943359
675.816406	7614.631836
673.847656	7716.954590
671.878906	7793.836426
669.908203	7756.447754
667.937500	7659.434570
665.966797	7637.317383
663.996094	7764.875488
662.025391	7655.245605
660.052734	7681.316406
658.080078	7612.315430
656.107422	7618.107910
654.134766	7646.699707
652.160156	7637.280273
650.185547	7449.324219
648.210938	7609.590820
646.236328	7530.573730
644.259766	7551.555664
642.283203	7615.537598
640.306641	7626.368652
638.330078	7696.622559
636.353516	7783.275391
634.375000	7746.030273
632.396484	7698.693848
630.416016	7528.845215
628.437500	7547.253418
626.457031	7761.358398
624.476563	7741.830078
622.496094	7690.759766
620.513672	7582.935059
618.533203	7713.569336
616.550781	7588.133301
614.568359	7592.619629
612.583984	7604.666504
610.599609	7741.466797
608.615234	7774.888184
606.630859	7557.631348
604.646484	7471.444824
602.660156	7550.227539
600.673828	7594.986816
598.687500	7496.266113
596.701172	7640.403809
594.712891	7732.902344
592.724609	7590.204102
590.736328	7634.894531
588.746094	7621.745605
586.757813	7593.522949
584.767578	7533.905762
582.777344	7557.210938
580.785156	7664.633789
578.794922	7720.533203
576.802734	7701.101074
574.810547	7628.976563
572.818359	7802.760254
570.824219	7496.115723
568.830078	7747.584961
566.835938	7775.798828
564.841797	7667.393066
562.845703	7587.856934
560.849609	7684.980957
558.853516	7750.748047
556.857422	7568.578613
554.859375	7724.464844
552.861328	7648.759277
550.863281	7583.098633
548.865234	7665.065918
546.865234	7805.766602
544.867188	7807.624023
542.867188	7526.998047
540.865234	7617.642090
538.865234	7638.279297
536.863281	7702.621094
534.861328	7703.246094
532.857422	7571.539551
530.855469	7721.965332
528.851563	7614.023926
526.847656	7564.766113
524.843750	7493.081055
522.837891	7517.439941
520.832031	7544.279297
518.826172	7679.529297
516.820313	7577.978516
514.812500	7538.759277
512.806641	7673.908691
510.796875	7710.630859
508.789063	7539.460938
506.781250	7673.262695
504.771484	7571.854492
502.761719	7645.876465
500.750000	7588.045898
498.740234	7816.185547
496.728516	7683.764160
494.716797	7596.140137
492.705078	7783.109863
490.691406	7659.483887
488.677734	7660.087891
486.664063	7793.520020
484.650391	7714.658203
482.634766	7603.573242
480.619141	7547.122559
478.603516	7654.402832
476.587891	7664.918457
474.570313	7701.458984
472.552734	7657.427246
470.535156	7794.304688
468.517578	7697.007324
466.498047	7624.523926
464.478516	7616.452637
462.458984	7800.233887
460.439453	7747.573730
458.417969	7693.700684
456.396484	7622.537109
454.375000	7650.329102
452.353516	7641.019531
450.330078	7705.867676
448.306641	7828.755371
446.283203	7744.051758
444.257813	7714.963379
442.234375	7641.438965
440.208984	7664.231445
438.181641	7748.714355
436.156250	7917.049805
434.128906	8185.209961
432.101563	8111.653320
430.074219	8293.330078
428.044922	8526.681641
426.017578	8683.517578
423.988281	8628.382813
421.957031	8643.476563
419.927734	8413.530273
417.896484	8609.624023
415.865234	8559.478516
413.833984	8707.450195
411.800781	9220.679688
409.767578	9420.058594
407.734375	10843.883789
405.701172	12189.558594
403.666016	12349.945313
401.630859	11074.083984
399.595703	10394.553711
397.560547	10432.470703
395.523438	11219.213867
393.486328	11990.833984
391.449219	12694.579102
389.410156	12708.565430
387.373047	11314.649414
385.333984	10208.334961
383.294922	9182.249023
381.253906	8676.274414
379.212891	8562.601563
377.171875	8630.260742
375.130859	9246.477539
373.087891	10972.755859
371.046875	15100.715820
369.001953	19549.623047
366.958984	19278.007813
364.916016	16412.556641
362.871094	13531.434570
360.824219	11849.693359
358.779297	10726.061523
356.732422	10091.698242
354.685547	9890.045898
352.638672	9667.735352
350.591797	9533.434570
348.542969	9662.831055
346.494141	9648.175781
344.445313	9734.777344
342.394531	9523.753906
340.343750	9784.696289
338.292969	10133.269531
336.242188	10421.948242
334.189453	10563.058594
332.138672	10344.774414
330.083984	9892.795898
328.031250	9621.223633
325.976563	9240.248047
323.921875	9041.984375
321.867188	8679.594727
319.812500	8578.865234
317.755859	8435.630859
315.699219	8496.679688
313.642578	8348.674805
311.583984	8499.615234
309.525391	8293.380859
307.466797	8071.463867
305.408203	7939.494629
303.347656	7893.762695
301.287109	7994.869629
299.226563	7875.146973
297.166016	8204.199219
295.103516	8091.754883
293.041016	8170.881836
290.978516	8062.136719
288.914063	8115.785645
286.849609	8034.963867
284.785156	8380.407227
282.720703	8282.607422
280.654297	8311.932617
278.587891	8179.109375
276.521484	8040.305176
274.453125	8074.501465
272.386719	8123.185547
270.318359	8171.843262
268.248047	8221.681641
266.179688	8215.921875
264.109375	8306.782227
262.039063	8397.593750
259.968750	8668.214844
257.896484	8826.460938
255.824219	9112.508789
253.751953	9467.157227
251.677734	10079.668945
249.603516	11067.985352
247.529297	12081.092773
245.455078	14460.026367
243.378906	18194.076172
241.304688	23643.460938
239.226563	28639.708984
237.150391	29268.929688
235.072266	24775.259766
232.994141	18788.601563
230.916016	14200.203125
228.835938	11740.015625
226.757813	9969.898438
224.675781	9103.221680
222.595703	8736.791992
220.513672	8493.067383
218.431641	8254.272461
216.349609	8126.044922
214.267578	8175.507324
212.183594	8044.964844
210.099609	7964.869141
208.013672	7788.877441
205.929688	7880.330078
203.843750	7693.662598
201.757813	7934.870605
199.669922	7666.823730
197.582031	7596.524414
195.494141	7598.099609
193.406250	7628.399414
191.316406	7590.470703
189.226563	7775.082031
187.136719	7930.888184
185.046875	7731.482422
182.955078	7815.489258
180.863281	7509.854980
178.769531	7765.916992
176.677734	7665.898438
174.583984	7776.095703
172.490234	7684.479980
170.394531	7653.779297
168.298828	7865.303711
166.203125	7951.464844
164.107422	8122.246582
162.009766	8255.976563
159.912109	8374.137695
157.814453	8841.359375
155.716797	10657.999023
153.617188	13530.001953
151.517578	13997.831055
149.416016	12973.991211
147.316406	12492.127930
145.214844	11542.997070
143.113281	10146.005859
141.009766	8846.075195
138.906250	8198.234375
136.802734	8066.484375
134.699219	7932.426758
132.593750	8223.636719
130.488281	8113.353027
128.382813	8252.408203
126.275391	8449.536133
124.167969	9038.068359
122.060547	9422.271484
119.951172	9391.246094
117.843750	8835.083984
115.734375	8032.719238
113.623047	7696.414063
111.513672	7631.533203
109.402344	7153.419434
107.289063	7175.137695
105.177734	7072.574707
103.064453	7095.481934
100.951172	7069.877930
98.835938	7007.627930
96.722656	6958.414551
94.607422	6922.226074
92.490234	7085.737305
90.375000	6969.207031
88.257813	6908.241211
86.140625	7025.572754
84.021484	6788.764160
81.902344	6960.336426
79.783203	7022.109375
77.664063	6949.409668
75.542969	6784.791504
73.421875	6958.523438
71.300781	6770.423828
69.177734	6772.078125
67.054688	7028.097168
64.931641	6914.298828
62.806641	6947.683594
60.683594	6878.679199
58.556641	6870.879883
56.431641	6970.098145
54.304688	6821.193848
52.177734	6807.534180
50.050781	6929.005371
47.921875	6925.891113
45.792969	6788.900879
43.664063	6849.220215
41.533203	7022.177734
39.402344	6946.283691
37.271484	6952.541992
35.140625	6957.622559
33.007813	6852.494629
