#Wave		#Intensity
1945.189453	11545.611328
1943.490234	11550.024414
1941.789063	12008.416992
1940.089844	11718.275391
1938.388672	11667.844727
1936.687500	11635.065430
1934.986328	11612.580078
1933.285156	11861.925781
1931.583984	11755.666016
1929.880859	11764.008789
1928.179688	11715.069336
1926.476563	11708.724609
1924.773438	11722.933594
1923.070313	11678.418945
1921.367188	12024.306641
1919.664063	11875.565430
1917.958984	11869.184570
1916.255859	11793.857422
1914.550781	11834.417969
1912.845703	11789.910156
1911.140625	11758.610352
1909.435547	11914.954102
1907.730469	11738.535156
1906.023438	11588.550781
1904.316406	11585.130859
1902.611328	11672.534180
1900.904297	11877.079102
1899.197266	11615.863281
1897.488281	11485.044922
1895.781250	11745.137695
1894.074219	11574.816406
1892.365234	11733.822266
1890.656250	11851.802734
1888.947266	11612.782227
1887.238281	11486.467773
1885.529297	11659.993164
1883.818359	11793.975586
1882.109375	11786.102539
1880.398438	11710.992188
1878.687500	11733.819336
1876.976563	11578.373047
1875.265625	11636.271484
1873.554688	11588.979492
1871.841797	11446.772461
1870.130859	11520.716797
1868.417969	11520.177734
1866.705078	11589.699219
1864.992188	11460.713867
1863.279297	11466.012695
1861.564453	11180.986328
1859.851563	11409.499023
1858.136719	11560.633789
1856.421875	11840.028320
1854.707031	11380.179688
1852.992188	11276.148438
1851.277344	11489.855469
1849.562500	11572.345703
1847.845703	11436.276367
1846.128906	11333.753906
1844.412109	11311.363281
1842.695313	11468.075195
1840.978516	11521.365234
1839.261719	11398.510742
1837.542969	11411.040039
1835.824219	11601.078125
1834.105469	11283.325195
1832.386719	11233.315430
1830.667969	11430.546875
1828.949219	11363.075195
1827.228516	11276.726563
1825.509766	11297.963867
1823.789063	11351.162109
1822.068359	11304.083984
1820.347656	11351.445313
1818.626953	11359.571289
1816.904297	11135.341797
1815.183594	11264.007813
1813.460938	11267.782227
1811.738281	11480.553711
1810.015625	11047.490234
1808.292969	11089.016602
1806.568359	11113.117188
1804.845703	11250.333984
1803.121094	11359.947266
1801.396484	11299.888672
1799.671875	11263.041992
1797.947266	11091.421875
1796.222656	11131.419922
1794.496094	11474.192383
1792.769531	11176.600586
1791.044922	11050.007813
1789.318359	11095.765625
1787.589844	11095.177734
1785.863281	11136.563477
1784.136719	11234.371094
1782.408203	11006.586914
1780.679688	11082.677734
1778.951172	11200.682617
1777.222656	11036.651367
1775.494141	11059.191406
1773.763672	10974.749023
1772.035156	11341.267578
1770.304688	11058.829102
1768.574219	11055.333008
1766.843750	11021.500977
1765.111328	10892.359375
1763.380859	10692.510742
1761.648438	10762.703125
1759.917969	11076.804688
1758.185547	11073.293945
1756.453125	10864.893555
1754.718750	10893.156250
1752.986328	10963.233398
1751.251953	11096.734375
1749.517578	10930.287109
1747.785156	10853.275391
1746.048828	10796.467773
1744.314453	10762.735352
1742.580078	11027.241211
1740.843750	10846.547852
1739.107422	10902.108398
1737.371094	10823.735352
1735.634766	10899.428711
1733.898438	10854.186523
1732.160156	10890.986328
1730.423828	10765.184570
1728.685547	10832.191406
1726.947266	10932.251953
1725.208984	10865.463867
1723.470703	10895.027344
1721.730469	10818.206055
1719.992188	10620.688477
1718.251953	10654.584961
1716.511719	10665.480469
1714.771484	10778.350586
1713.029297	10908.407227
1711.289063	10597.623047
1709.546875	10703.256836
1707.804688	10665.323242
1706.062500	10681.930664
1704.320313	10708.572266
1702.578125	10788.275391
1700.833984	10594.024414
1699.091797	10742.540039
1697.347656	10653.020508
1695.603516	10738.397461
1693.857422	10527.100586
1692.113281	10654.014648
1690.369141	10588.924805
1688.623047	10614.086914
1686.876953	10844.002930
1685.130859	10774.612305
1683.384766	10609.344727
1681.636719	10485.641602
1679.890625	10831.291992
1678.142578	10754.796875
1676.394531	10495.255859
1674.646484	10689.119141
1672.896484	10525.477539
1671.148438	10504.840820
1669.398438	10651.420898
1667.650391	10279.261719
1665.900391	10380.109375
1664.148438	10449.492188
1662.398438	10503.138672
1660.648438	10511.073242
1658.896484	10490.453125
1657.144531	10284.305664
1655.392578	10258.026367
1653.640625	10244.595703
1651.886719	10485.057617
1650.134766	10458.749023
1648.380859	10466.667969
1646.626953	10250.777344
1644.873047	10445.434570
1643.119141	10537.416016
1641.363281	10398.565430
1639.609375	10373.717773
1637.853516	10226.406250
1636.097656	10183.088867
1634.341797	10430.186523
1632.583984	10465.121094
1630.828125	10302.248047
1629.070313	10229.066406
1627.312500	10293.884766
1625.554688	10180.911133
1623.796875	10309.691406
1622.037109	10391.507813
1620.279297	10230.253906
1618.519531	10248.105469
1616.759766	10233.272461
1615.000000	10245.430664
1613.238281	10011.900391
1611.478516	10235.651367
1609.716797	10526.031250
1607.955078	10265.613281
1606.193359	10357.207031
1604.431641	10396.271484
1602.669922	10300.567383
1600.906250	10379.331055
1599.142578	10236.875977
1597.378906	10274.507813
1595.615234	10126.458984
1593.851563	10225.025391
1592.085938	10400.051758
1590.322266	10295.970703
1588.556641	10208.923828
1586.791016	10083.681641
1585.025391	10115.617188
1583.257813	10051.297852
1581.492188	10233.211914
1579.724609	10287.727539
1577.957031	10291.299805
1576.189453	10164.768555
1574.419922	10051.012695
1572.652344	10285.035156
1570.882813	10318.276367
1569.113281	10034.995117
1567.343750	9934.065430
1565.574219	10172.151367
1563.802734	10266.103516
1562.033203	10217.420898
1560.261719	10139.113281
1558.490234	10019.910156
1556.718750	9852.780273
1554.947266	10226.007813
1553.173828	10154.807617
1551.400391	9955.316406
1549.626953	9926.492188
1547.853516	10038.629883
1546.080078	10025.298828
1544.304688	9962.658203
1542.531250	9971.883789
1540.755859	9900.826172
1538.980469	9895.975586
1537.205078	9871.416992
1535.427734	9903.166992
1533.652344	10060.144531
1531.875000	9787.944336
1530.097656	9901.271484
1528.320313	10076.429688
1526.541016	10018.109375
1524.763672	10118.662109
1522.984375	9815.802734
1521.205078	9736.489258
1519.425781	9721.833008
1517.646484	9867.305664
1515.865234	10039.397461
1514.085938	9673.678711
1512.304688	9670.270508
1510.523438	10003.687500
1508.740234	9914.618164
1506.958984	9623.573242
1505.175781	9817.933594
1503.394531	9762.608398
1501.611328	9865.727539
1499.826172	9827.232422
1498.042969	9699.062500
1496.259766	9591.960938
1494.474609	9608.173828
1492.689453	9743.422852
1490.904297	9805.801758
1489.117188	9548.967773
1487.332031	9657.546875
1485.544922	9455.422852
1483.757813	9625.532227
1481.970703	9794.169922
1480.183594	9716.604492
1478.394531	9661.440430
1476.607422	9567.157227
1474.818359	9598.696289
1473.029297	9698.688477
1471.240234	9837.752930
1469.449219	9605.231445
1467.658203	9640.918945
1465.869141	9562.107422
1464.078125	9703.871094
1462.285156	9461.797852
1460.494141	9610.496094
1458.701172	9704.726563
1456.910156	9667.817383
1455.117188	9699.247070
1453.324219	9510.397461
1451.529297	9500.030273
1449.736328	9523.110352
1447.941406	9698.037109
1446.146484	9450.839844
1444.351563	9372.250977
1442.554688	9430.140625
1440.759766	9531.157227
1438.962891	9612.645508
1437.166016	9632.875000
1435.369141	9494.504883
1433.572266	9404.872070
1431.773438	9479.360352
1429.976563	9430.083008
1428.177734	9373.875000
1426.378906	9426.083984
1424.578125	9321.270508
1422.779297	9456.810547
1420.978516	9477.022461
1419.177734	9437.519531
1417.376953	9359.164063
1415.576172	9494.575195
1413.775391	9398.198242
1411.972656	9540.477539
1410.169922	9222.208984
1408.367188	9349.208008
1406.564453	9148.958984
1404.759766	9449.182617
1402.957031	9382.033203
1401.152344	9342.622070
1399.347656	9470.839844
1397.542969	9490.976563
1395.736328	9271.559570
1393.931641	9297.265625
1392.125000	9219.154297
1390.318359	9023.457031
1388.511719	9224.894531
1386.703125	9304.526367
1384.894531	9352.317383
1383.087891	9264.593750
1381.279297	9107.793945
1379.468750	9244.039063
1377.660156	9370.551758
1375.849609	9433.466797
1374.041016	9249.137695
1372.230469	9070.410156
1370.417969	9125.062500
1368.607422	9330.130859
1366.794922	9070.083008
1364.984375	9288.869141
1363.171875	9038.595703
1361.357422	9158.002930
1359.544922	9201.528320
1357.730469	9251.925781
1355.917969	9050.104492
1354.103516	8964.106445
1352.287109	9048.958008
1350.472656	9221.913086
1348.656250	9098.753906
1346.841797	8928.839844
1345.025391	9104.458984
1343.207031	9017.177734
1341.390625	9107.403320
1339.572266	8980.268555
1337.755859	9004.454102
1335.937500	9483.703125
1334.117188	9094.027344
1332.298828	9201.998047
1330.478516	9046.122070
1328.658203	8746.078125
1326.837891	8926.839844
1325.017578	8913.919922
1323.197266	9142.610352
1321.375000	8798.882813
1319.552734	8843.626953
1317.730469	8819.756836
1315.908203	8868.588867
1314.085938	8951.681641
1312.261719	8851.025391
1310.437500	8840.876953
1308.613281	8827.991211
1306.789063	9052.133789
1304.962891	8962.497070
1303.138672	8666.106445
1301.312500	8717.618164
1299.486328	8819.753906
1297.660156	8857.521484
1295.832031	8680.448242
1294.003906	8860.499023
1292.177734	8743.679688
1290.347656	8812.875977
1288.519531	8793.179688
1286.691406	8781.692383
1284.861328	8697.784180
1283.031250	8549.700195
1281.201172	8692.617188
1279.371094	8626.533203
1277.539063	8754.350586
1275.707031	8764.719727
1273.875000	8728.684570
1272.042969	8703.578125
1270.210938	8758.964844
1268.376953	8718.859375
1266.544922	8695.132813
1264.710938	8616.886719
1262.876953	8696.772461
1261.041016	8705.766602
1259.207031	8838.725586
1257.371094	8658.361328
1255.535156	8543.437500
1253.699219	8492.550781
1251.861328	8780.604492
1250.025391	8556.860352
1248.187500	8516.884766
1246.349609	8540.856445
1244.511719	8619.213867
1242.671875	8675.782227
1240.833984	8677.951172
1238.994141	8609.448242
1237.154297	8633.368164
1235.312500	8687.163086
1233.472656	8647.220703
1231.630859	8550.267578
1229.789063	8518.516602
1227.947266	8675.434570
1226.105469	8528.329102
1224.261719	8544.083984
1222.419922	8531.347656
1220.576172	8406.064453
1218.732422	8626.549805
1216.886719	8700.548828
1215.042969	8651.196289
1213.197266	8460.961914
1211.351563	8506.500000
1209.505859	8672.544922
1207.658203	8560.957031
1205.812500	8519.807617
1203.964844	8385.294922
1202.117188	8494.387695
1200.269531	8675.126953
1198.419922	8620.459961
1196.572266	8427.898438
1194.722656	8353.031250
1192.873047	8460.654297
1191.021484	8454.724609
1189.171875	8358.283203
1187.320313	8272.688477
1185.468750	8274.904297
1183.617188	8348.669922
1181.765625	8411.603516
1179.912109	8424.579102
1178.060547	8306.681641
1176.207031	8311.580078
1174.353516	8418.964844
1172.498047	8497.987305
1170.644531	8475.877930
1168.789063	8327.099609
1166.933594	8344.109375
1165.078125	8276.247070
1163.220703	8452.174805
1161.363281	8329.113281
1159.507813	8176.489258
1157.648438	8151.788086
1155.791016	8337.002930
1153.933594	8197.928711
1152.074219	8124.818848
1150.214844	8162.001953
1148.355469	8462.659180
1146.496094	8501.091797
1144.634766	8520.694336
1142.773438	8384.447266
1140.912109	8331.536133
1139.050781	8343.103516
1137.189453	8315.730469
1135.326172	8344.744141
1133.462891	8234.181641
1131.599609	8272.589844
1129.736328	8380.729492
1127.871094	8389.583984
1126.007813	8277.765625
1124.142578	8149.910645
1122.277344	8231.175781
1120.410156	8136.882813
1118.544922	8181.944336
1116.677734	8202.878906
1114.810547	8166.228027
1112.943359	8152.350098
1111.074219	8233.500000
1109.207031	8329.331055
1107.337891	8291.343750
1105.468750	8324.256836
1103.599609	8222.102539
1101.728516	8280.415039
1099.859375	8170.296387
1097.988281	8203.204102
1096.115234	8089.141602
1094.244141	8318.390625
1092.373047	8256.430664
1090.500000	8211.853516
1088.626953	8183.312500
1086.753906	8229.511719
1084.878906	8342.397461
1083.005859	8373.866211
1081.130859	8199.955078
1079.255859	8166.111328
1077.378906	8261.577148
1075.503906	8067.816406
1073.626953	8127.286621
1071.750000	8030.880371
1069.873047	8216.846680
1067.996094	8207.005859
1066.117188	8359.567383
1064.238281	8096.837402
1062.359375	8071.061035
1060.480469	8090.523926
1058.601563	8234.991211
1056.720703	8245.099609
1054.839844	8041.178223
1052.958984	8036.704102
1051.078125	7964.465332
1049.195313	8128.720703
1047.312500	8126.883789
1045.429688	8082.556152
1043.546875	7969.215332
1041.664063	8024.484375
1039.779297	8163.324707
1037.894531	8195.970703
1036.009766	7960.680176
1034.125000	8151.153809
1032.240234	8096.278809
1030.353516	8211.083984
1028.466797	7926.969727
1026.580078	7998.039551
1024.691406	8112.786621
1022.804688	8284.422852
1020.916016	8139.559082
1019.027344	8071.531738
1017.138672	8064.407715
1015.248047	8741.294922
1013.357422	8227.413086
1011.468750	8020.568359
1009.576172	7895.789063
1007.685547	8005.030273
1005.792969	8036.250488
1003.902344	7973.647949
1002.009766	7975.798828
1000.115234	8022.849609
998.222656	8079.120605
996.328125	8115.564453
994.433594	8183.664551
992.539063	8030.067871
990.644531	8012.411133
988.748047	8076.529297
986.853516	8107.654297
984.957031	7995.076660
983.058594	8084.192871
981.162109	8091.574707
979.263672	8274.157227
977.365234	7970.671875
975.466797	8036.008301
973.568359	7734.029785
971.667969	8029.711426
969.769531	8244.992188
967.869141	8193.121094
965.968750	7997.912109
964.066406	8011.865723
962.164063	8148.072754
960.263672	7964.834473
958.359375	8127.269043
956.457031	8057.098145
954.554688	7985.645508
952.650391	8050.790039
950.746094	8102.775391
948.841797	7985.419922
946.935547	7984.905762
945.029297	7884.684570
943.125000	8056.015137
941.216797	8148.586914
939.310547	8006.441406
937.404297	8148.788086
935.496094	8017.189453
933.587891	7969.498535
931.679688	7907.420410
929.769531	7888.583984
927.859375	8059.593750
925.951172	7926.853027
924.039063	8123.946289
922.128906	7946.767090
920.216797	8031.272949
918.306641	7936.581543
916.394531	7875.925293
914.480469	7887.188477
912.568359	7779.524414
910.654297	7810.400391
908.740234	8166.510742
906.826172	8082.360840
904.912109	7934.273438
902.996094	7826.717773
901.080078	7882.338867
899.164063	8078.843262
897.248047	7953.064453
895.332031	8034.697754
893.414063	8055.013672
891.496094	7877.183105
889.578125	7939.227051
887.658203	7954.336426
885.740234	7811.820313
883.820313	7987.135742
881.900391	7914.985352
879.978516	7949.608887
878.058594	7917.842773
876.136719	7878.283691
874.214844	7958.417480
872.292969	8043.715820
870.369141	8019.754883
868.447266	7782.618164
866.523438	7835.404785
864.599609	7999.907227
862.673828	7962.985352
860.750000	7905.300293
858.824219	7851.536133
856.898438	7993.811523
854.972656	7921.880371
853.044922	7839.601563
851.117188	7901.351563
849.189453	7970.853027
847.261719	7886.024414
845.333984	8038.459961
843.404297	7923.844727
841.474609	7874.067383
839.544922	7845.039063
837.615234	8019.356445
835.683594	7727.458496
833.753906	7750.262207
831.822266	7806.704102
829.888672	8017.094727
827.957031	7976.425781
826.023438	7896.975586
824.089844	7772.305664
822.156250	7910.113770
820.222656	7987.113281
818.287109	7870.259277
816.351563	7961.440430
814.416016	7804.608398
812.480469	7956.447754
810.542969	7988.160645
808.605469	7959.199219
806.667969	7790.896973
804.730469	7889.704590
802.792969	7810.484863
800.853516	7937.606934
798.914063	7971.853027
796.974609	7852.713867
795.033203	7952.675781
793.093750	8017.808594
791.152344	8218.140625
789.210938	7950.976563
787.269531	7967.143555
785.326172	8114.577148
783.382813	8277.380859
781.439453	8231.710938
779.496094	8047.161133
777.550781	8052.996094
775.607422	8080.681152
773.662109	8104.496094
771.716797	7957.407227
769.769531	8072.445313
767.824219	7838.098145
765.876953	7864.512207
763.929688	7980.771973
761.980469	7840.296387
760.033203	7969.336426
758.083984	8144.496094
756.134766	8155.413086
754.183594	8012.459961
752.234375	8120.824707
750.283203	8270.148438
748.332031	8152.892090
746.380859	8038.251953
744.429688	7822.489258
742.476563	7905.158691
740.523438	7868.739746
738.570313	7946.238770
736.615234	7850.969238
734.662109	8143.338379
732.707031	8032.717773
730.751953	7942.606445
728.794922	7973.973633
726.839844	8073.058594
724.882813	8025.162109
722.925781	8052.652832
720.968750	8156.754883
719.009766	7981.190430
717.050781	7919.314941
715.091797	7923.829590
713.132813	8083.998535
711.173828	7958.360840
709.212891	7818.752930
707.251953	7843.682617
705.291016	7928.509766
703.330078	7890.955078
701.367188	7761.683594
699.404297	7925.441406
697.441406	8011.437988
695.478516	8178.876953
693.513672	8076.385742
691.548828	7972.669922
689.583984	7941.520996
687.619141	7882.403320
685.652344	7941.577148
683.685547	8176.170898
681.718750	7928.918457
679.751953	7977.870117
677.785156	7920.078613
675.816406	7723.866211
673.847656	7879.497070
671.878906	7820.497559
669.908203	7936.682617
667.937500	7828.206055
665.966797	7783.212891
663.996094	7960.202148
662.025391	7883.495605
660.052734	7777.666016
658.080078	7722.583496
656.107422	7824.653320
654.134766	7793.654297
652.160156	7780.400391
650.185547	7767.151855
648.210938	7753.908691
646.236328	7606.512695
644.259766	7785.643555
642.283203	7767.342285
640.306641	7730.077148
638.330078	7848.354980
636.353516	7807.293945
634.375000	7973.520020
632.396484	7854.107910
630.416016	7645.062500
628.437500	7828.886230
626.457031	7914.136230
624.476563	7897.096191
622.496094	7786.673340
620.513672	7757.052734
618.533203	7697.170898
616.550781	7692.805664
614.568359	7747.699707
612.583984	7820.213867
610.599609	7762.890625
608.615234	7787.487305
606.630859	7654.620605
604.646484	7626.338867
602.660156	7697.530762
600.673828	7757.358887
598.687500	7634.689941
596.701172	7769.987793
594.712891	7716.550781
592.724609	7714.695801
590.736328	7768.156250
588.746094	7749.947754
586.757813	7743.056152
584.767578	7672.096680
582.777344	7749.375488
580.785156	7778.899902
578.794922	7731.831543
576.802734	7654.663086
574.810547	7777.038574
572.818359	7918.170898
570.824219	7761.998047
568.830078	7876.732422
566.835938	7867.308105
564.841797	7755.121094
562.845703	7768.281738
560.849609	7758.887207
558.853516	7927.328613
556.857422	7762.644531
554.859375	7884.687012
552.861328	7793.925781
550.863281	7600.614258
548.865234	7572.504883
546.865234	7948.326660
544.867188	7848.881348
542.867188	7780.730957
540.865234	7870.063965
538.865234	7831.922363
536.863281	7797.545410
534.861328	7881.810547
532.857422	7791.257813
530.855469	7836.790039
528.851563	7686.395996
526.847656	7759.374023
524.843750	7651.473633
522.837891	7776.791016
520.832031	7639.019043
518.826172	7861.485352
516.820313	7870.781250
514.812500	7845.192871
512.806641	7835.805176
510.796875	7669.544434
508.789063	7599.208984
506.781250	7747.929688
504.771484	7540.750977
502.761719	7754.090332
500.750000	7775.819824
498.740234	7923.103516
496.728516	7865.230957
494.716797	7804.900391
492.705078	8015.422852
490.691406	7827.155273
488.677734	7862.485840
486.664063	7967.316406
484.650391	7962.877441
482.634766	7793.414551
480.619141	7728.233887
478.603516	7744.936035
476.587891	7893.056152
474.570313	7815.499512
472.552734	7916.434082
470.535156	7885.987793
468.517578	7758.940430
466.498047	7775.602539
464.478516	7748.923340
462.458984	7867.072266
460.439453	7952.987793
458.417969	7894.115234
456.396484	7884.743652
454.375000	7875.375000
452.353516	7819.034180
450.330078	7935.746094
448.306641	7989.383301
446.283203	7954.051758
444.257813	7997.775391
442.234375	7817.998535
440.208984	7872.840820
438.181641	8004.166504
436.156250	8081.140137
434.128906	8339.391602
432.101563	8331.154297
430.074219	8664.416016
428.044922	8742.375977
426.017578	8958.304688
423.988281	9011.510742
421.957031	8866.398438
419.927734	8657.329102
417.896484	8800.428711
415.865234	8752.698242
413.833984	9002.743164
411.800781	9408.881836
409.767578	9865.236328
407.734375	11529.925781
405.701172	13675.610352
403.666016	13983.087891
401.630859	11940.207031
399.595703	10689.330078
397.560547	10873.295898
395.523438	11834.251953
393.486328	12776.313477
391.449219	13640.598633
389.410156	13673.974609
387.373047	12040.670898
385.333984	10614.166992
383.294922	9551.206055
381.253906	9037.785156
379.212891	8895.842773
377.171875	8953.620117
375.130859	9693.433594
373.087891	11581.197266
371.046875	16292.813477
369.001953	20895.593750
366.958984	20438.919922
364.916016	17019.162109
362.871094	14068.193359
360.824219	12189.513672
358.779297	11164.783203
356.732422	10387.363281
354.685547	10223.500977
352.638672	9797.175781
350.591797	9911.890625
348.542969	9883.744141
346.494141	9808.023438
344.445313	10083.667969
342.394531	9784.746094
340.343750	9991.973633
338.292969	10367.310547
336.242188	10980.092773
334.189453	10827.439453
332.138672	10732.109375
330.083984	10097.374023
328.031250	9694.268555
325.976563	9508.010742
323.921875	9029.816406
321.867188	8908.292969
319.812500	8761.291016
317.755859	8791.877930
315.699219	8726.417969
313.642578	8626.963867
311.583984	8696.433594
309.525391	8610.394531
307.466797	8400.540039
305.408203	8185.934570
303.347656	8132.856934
301.287109	8000.936523
299.226563	7992.812988
297.166016	8245.431641
295.103516	8239.671875
293.041016	8310.275391
290.978516	8337.215820
288.914063	8292.663086
286.849609	8380.150391
284.785156	8542.663086
282.720703	8377.031250
280.654297	8492.257813
278.587891	8394.476563
276.521484	8215.699219
274.453125	8324.826172
272.386719	8386.745117
270.318359	8453.463867
268.248047	8423.477539
266.179688	8481.692383
264.109375	8442.048828
262.039063	8623.380859
259.968750	9025.517578
257.896484	9048.509766
255.824219	9355.010742
253.751953	9816.943359
251.677734	10430.570313
249.603516	11574.308594
247.529297	12742.756836
245.455078	15273.334961
243.378906	19425.164063
241.304688	25679.884766
239.226563	31208.951172
237.150391	31943.419922
235.072266	26534.521484
232.994141	19883.339844
230.916016	15025.250977
228.835938	12128.382813
226.757813	10427.883789
224.675781	9437.306641
222.595703	9141.673828
220.513672	8756.111328
218.431641	8463.210938
216.349609	8414.160156
214.267578	8215.112305
212.183594	8180.547363
210.099609	8096.817383
208.013672	7915.993652
205.929688	7839.567871
203.843750	7765.577148
201.757813	8088.247559
199.669922	7765.054688
197.582031	7668.381836
195.494141	7793.260254
193.406250	7852.235840
191.316406	7878.868164
189.226563	7968.890625
187.136719	7928.496094
185.046875	7859.423340
182.955078	7811.902832
180.863281	7689.116211
178.769531	7881.808594
176.677734	7837.896973
174.583984	8060.295898
172.490234	7839.673828
170.394531	7807.737793
168.298828	7940.472656
166.203125	8155.440430
164.107422	8426.338867
162.009766	8395.463867
159.912109	8581.524414
157.814453	9157.122070
155.716797	11257.191406
153.617188	14245.742188
151.517578	14758.622070
149.416016	13421.534180
147.316406	12618.263672
145.214844	11642.925781
143.113281	10418.357422
141.009766	9180.180664
138.906250	8386.043945
136.802734	8205.520508
134.699219	8093.998047
132.593750	8329.342773
130.488281	8368.639648
128.382813	8356.869141
126.275391	8481.577148
124.167969	8979.934570
122.060547	9482.761719
119.951172	9409.032227
117.843750	8929.918945
115.734375	8084.864258
113.623047	7644.282715
111.513672	7697.863281
109.402344	7287.228027
107.289063	7233.144531
105.177734	7079.675781
103.064453	7029.224609
100.951172	7241.391113
98.835938	7096.317383
96.722656	7009.249023
94.607422	7061.687012
92.490234	7122.365234
90.375000	7074.335938
88.257813	7062.938477
86.140625	7090.503906
84.021484	6819.450684
81.902344	6944.997070
79.783203	6966.668457
77.664063	7066.157227
75.542969	6989.926758
73.421875	6884.270996
71.300781	6823.446777
69.177734	6913.432617
67.054688	7149.393066
64.931641	6989.645996
62.806641	7100.690430
60.683594	7028.113281
58.556641	6969.690918
56.431641	7090.048828
54.304688	6986.962402
52.177734	6987.360352
50.050781	6997.155762
47.921875	7033.961426
45.792969	6853.489746
43.664063	6933.749512
41.533203	7125.461914
39.402344	7083.566406
37.271484	7058.114746
35.140625	7010.394043
33.007813	6976.766113
